subID,trialNum,cntBalance,correct,rt,winner,p1conf,p2conf,p1rslt,p2rslt,
7t8,1,L,true,5542,2,1,1,1,1,
7t8,2,L,false,3460,1,0,1,0,0,
7t8,3,L,true,4730,1,1,0,1,0,
7t8,4,L,false,3338,2,1,1,0,0,
7t8,5,L,false,6678,1,0,0,0,0,
7t8,6,L,false,2870,1,0,0,1,0,
7t8,7,L,true,1918,2,0,0,0,1,
7t8,8,L,false,1631,1,0,0,1,0,
7t8,9,L,true,1309,2,1,1,1,1,
7t8,10,L,true,1219,2,1,1,1,1,
7t8,11,L,true,3864,1,0,1,1,1,
7t8,12,L,false,1775,2,0,0,0,1,
7t8,13,L,false,1565,1,0,1,1,0,
7t8,14,L,true,2453,1,0,0,1,1,
7t8,15,L,true,1365,2,1,1,1,1,
7t8,16,L,false,2559,1,1,0,0,1,
7t8,17,L,true,3174,2,1,0,1,0,
7t8,18,L,false,1308,1,1,1,1,0,
7t8,19,L,true,1219,1,0,0,1,1,
7t8,20,L,true,2909,1,1,1,1,1,
7t8,21,L,false,1278,1,1,0,1,0,
7t8,22,L,false,1301,1,1,0,0,0,
7t8,23,L,false,1093,2,0,1,1,0,
7t8,24,L,true,1150,2,1,0,1,1,
7t8,25,L,false,863,2,0,0,0,1,
7t8,26,L,false,687,2,0,0,1,1,
7t8,27,L,false,1342,1,0,1,1,0,
7t8,28,L,true,1463,2,0,1,1,1,
7t8,29,L,true,975,1,0,0,1,1,
7t8,30,L,true,949,2,0,1,1,1,
7t8,31,L,true,1055,1,0,1,1,1,
7t8,32,L,false,975,1,0,0,1,0,
7t8,33,L,true,2231,1,1,1,1,1,
7t8,34,L,true,1673,2,0,0,1,1,
7t8,35,L,true,724,2,0,0,1,1,
7t8,36,L,false,752,1,0,0,0,1,
7t8,37,L,true,757,1,1,1,1,0,
7t8,38,L,false,1087,2,0,0,0,0,
7t8,39,L,true,719,1,0,0,1,1,
7t8,40,L,false,772,2,0,0,0,0,
7t8,41,L,true,771,2,0,0,1,1,
7t8,42,L,true,813,2,1,1,1,1,
7t8,43,L,false,1057,1,0,1,0,1,
7t8,44,L,true,1693,2,1,0,1,1,
7t8,45,L,true,2551,1,1,1,1,0,
7t8,46,L,false,1324,2,1,1,0,0,
7t8,47,L,false,2994,1,0,0,1,0,
7t8,48,L,false,743,2,1,0,0,1,
7t8,49,L,true,303,2,0,1,1,0,
7t8,50,L,false,2360,2,0,1,1,0,
7t8,51,L,true,1312,1,1,1,1,1,
7t8,52,L,true,312,2,0,1,0,1,
7t8,53,L,true,1591,2,0,0,1,1,
7t8,54,L,true,1696,2,0,0,1,1,
7t8,55,L,false,1112,1,0,1,1,1,
7t8,56,L,true,1233,2,0,1,0,1,
7t8,57,L,false,1308,1,1,1,1,0,
7t8,58,L,true,1144,1,1,1,1,1,
7t8,59,L,true,966,2,0,0,0,1,
7t8,60,L,true,968,1,1,1,1,1,
7t8,61,L,false,1118,1,0,1,0,0,
7t8,62,L,true,2010,2,1,0,1,1,
7t8,63,L,false,1417,2,0,1,1,0,
7t8,64,L,true,1263,2,0,0,1,1,
7t8,65,L,true,943,2,1,0,1,1,
7t8,66,L,true,734,1,1,0,1,1,
7t8,67,L,true,941,2,1,1,1,0,
7t8,68,L,true,1886,1,1,0,1,0,
7t8,69,L,true,1973,2,0,0,1,1,
7t8,70,L,false,1161,1,1,1,1,0,
7t8,71,L,false,1911,1,0,0,0,1,
7t8,72,L,true,1631,1,0,1,0,1,
7t8,73,L,true,1264,1,0,0,0,1,
7t8,74,L,false,2342,2,0,0,0,0,
7t8,75,L,true,936,1,1,0,1,1,
7t8,76,L,true,2791,2,0,0,1,0,
7t8,77,L,false,1088,1,1,0,1,0,
7t8,78,L,true,1079,1,0,0,0,1,
7t8,79,L,true,1655,2,0,0,0,1,
7t8,80,L,true,1607,1,1,1,1,1,
7t8,81,L,false,1342,2,0,0,0,0,
7t8,82,L,true,1126,1,1,0,1,1,
7t8,83,L,false,3021,2,0,0,1,0,
7t8,84,L,false,2501,1,1,1,0,0,
7t8,85,L,false,1565,1,0,1,1,1,
7t8,86,L,true,1152,2,1,0,1,1,
7t8,87,L,true,1310,1,0,1,1,1,
7t8,88,L,true,1334,2,0,1,1,1,
7t8,89,L,false,1154,2,0,0,0,0,
7t8,90,L,true,807,2,1,0,1,0,
7t8,91,L,false,973,1,1,0,1,0,
7t8,92,L,true,889,2,1,1,1,1,
7t8,93,L,true,996,2,1,0,0,1,
7t8,94,L,true,1098,1,0,1,0,1,
7t8,95,L,true,1285,1,1,0,1,0,
7t8,96,L,false,1493,1,0,1,1,0,
7t8,97,L,false,2055,1,1,0,0,1,
7t8,98,L,true,2214,2,0,1,1,0,
7t8,99,L,true,2900,1,0,1,1,1,
7t8,100,L,false,1597,1,0,1,0,1,
brk,brk,brk,brk,brk,brk,brk,brk,brk,brk,
7t8,101,L,true,2473,2,1,0,1,1,
7t8,102,L,true,917,2,1,0,0,1,
7t8,103,L,true,862,2,0,1,1,1,
7t8,104,L,false,767,2,0,0,1,0,
7t8,105,L,true,1274,2,1,0,1,1,
7t8,106,L,true,910,2,0,1,0,1,
7t8,107,L,true,906,2,0,0,1,1,
7t8,108,L,false,927,2,0,0,1,0,
7t8,109,L,true,823,2,1,1,1,1,
7t8,110,L,false,653,1,0,0,0,1,
7t8,111,L,false,1087,2,1,1,0,0,
7t8,112,L,true,735,1,1,1,1,1,
7t8,113,L,true,743,2,0,1,0,1,
7t8,114,L,true,1048,2,0,0,0,1,
7t8,115,L,false,866,1,0,1,0,0,
7t8,116,L,true,983,1,1,0,1,1,
7t8,117,L,true,1526,2,1,0,1,0,
7t8,118,L,true,1695,1,1,0,1,1,
7t8,119,L,false,3447,1,1,1,0,1,
7t8,120,L,false,3255,1,0,0,0,1,
7t8,121,L,true,2208,1,1,0,1,1,
7t8,122,L,true,1017,1,1,1,1,0,
7t8,123,L,true,158,2,0,1,0,0,
7t8,124,L,true,16,1,0,1,1,1,
7t8,125,L,false,97,2,0,1,1,1,
7t8,126,L,true,626,2,1,0,1,1,
7t8,127,L,true,864,1,0,0,0,1,
7t8,128,L,true,130,2,0,1,1,0,
7t8,129,L,true,288,2,0,1,0,1,
7t8,130,L,true,1505,1,0,1,1,0,
7t8,131,L,true,1360,2,1,0,1,0,
7t8,132,L,true,991,2,0,1,1,1,
7t8,133,L,true,1337,2,1,1,1,1,
7t8,134,L,true,1679,1,1,1,1,1,
7t8,135,L,false,1301,2,0,0,0,1,
7t8,136,L,true,857,2,1,0,1,1,
7t8,137,L,true,1241,2,0,1,0,1,
7t8,138,L,true,982,2,0,1,0,1,
7t8,139,L,false,767,2,0,1,0,1,
7t8,140,L,true,855,2,1,0,1,0,
7t8,141,L,false,831,1,0,0,1,0,
7t8,142,L,true,614,2,1,1,1,0,
7t8,143,L,true,905,1,0,0,1,0,
7t8,144,L,false,545,1,0,0,1,1,
7t8,145,L,false,809,2,1,1,1,1,
7t8,146,L,false,745,1,1,1,1,1,
7t8,147,L,true,599,2,1,0,1,1,
7t8,148,L,true,648,2,1,0,1,0,
7t8,149,L,true,1026,1,1,0,1,1,
7t8,150,L,true,768,2,0,1,1,0,
7t8,151,L,false,616,1,0,1,0,1,
7t8,152,L,false,145,2,1,0,1,0,
7t8,153,L,false,33,1,0,0,1,0,
7t8,154,L,true,305,1,1,1,1,1,
7t8,155,L,true,152,1,0,0,1,0,
7t8,156,L,false,342,1,0,1,1,0,
7t8,157,L,false,355,2,0,0,1,1,
7t8,158,L,true,973,1,0,0,1,1,
7t8,159,L,true,1094,2,0,0,1,1,
7t8,160,L,false,657,2,0,0,1,1,
7t8,161,L,true,320,2,0,1,0,1,
7t8,162,L,false,48,2,1,0,0,1,
7t8,163,L,false,153,1,1,1,1,0,
7t8,164,L,true,40,1,1,0,1,1,
7t8,165,L,false,312,1,0,0,1,1,
7t8,166,L,false,2503,2,1,0,0,1,
7t8,167,L,false,2529,1,0,1,0,0,
7t8,168,L,true,2886,2,0,0,1,1,
7t8,169,L,true,1120,2,1,1,1,1,
7t8,170,L,false,2956,2,0,1,0,1,
7t8,171,L,true,529,2,0,0,1,0,
7t8,172,L,false,287,1,0,0,0,1,
7t8,173,L,true,23,2,0,1,0,1,
7t8,174,L,true,136,2,0,0,0,1,
7t8,175,L,false,241,2,0,0,1,1,
7t8,176,L,true,24,2,1,0,1,0,
7t8,177,L,false,201,1,1,1,1,1,
7t8,178,L,false,909,1,1,1,1,0,
7t8,179,L,true,725,1,1,0,1,1,
7t8,180,L,true,815,2,1,1,1,0,
7t8,181,L,false,894,1,0,1,0,1,
7t8,182,L,false,349,2,0,1,0,1,
7t8,183,L,true,727,2,0,0,1,1,
7t8,184,L,true,768,2,0,1,1,0,
7t8,185,L,true,953,1,1,0,1,1,
7t8,186,L,true,1881,1,1,1,1,1,
7t8,187,L,false,265,1,1,0,1,0,
7t8,188,L,false,391,2,0,1,0,0,
7t8,189,L,false,49,1,1,1,1,0,
7t8,190,L,false,241,2,0,1,1,0,
7t8,191,L,false,1152,1,1,0,1,0,
7t8,192,L,true,945,2,1,0,1,1,
7t8,193,L,true,1051,2,0,1,1,1,
7t8,194,L,true,734,1,0,1,1,1,
7t8,195,L,false,561,2,0,1,1,1,
7t8,196,L,true,1360,2,0,1,0,1,
7t8,197,L,true,1289,1,1,1,1,0,
7t8,198,L,true,2295,1,1,0,1,1,
7t8,199,L,true,810,2,0,1,1,1,
7t8,200,L,false,1101,1,1,0,0,1,
brk,brk,brk,brk,brk,brk,brk,brk,brk,brk,
7t8,201,L,true,1628,2,0,1,0,1,
7t8,202,L,false,176,1,0,1,1,1,
7t8,203,L,false,145,1,1,1,1,1,
7t8,204,L,true,265,1,1,1,1,1,
7t8,205,L,true,679,1,1,1,1,1,
7t8,206,L,true,432,1,1,0,1,1,
7t8,207,L,false,121,2,0,0,1,0,
7t8,208,L,false,336,1,1,1,1,1,
7t8,209,L,true,137,1,0,1,1,1,
7t8,210,L,true,160,1,1,1,1,1,
7t8,211,L,false,41,2,1,0,0,0,
7t8,212,L,true,86,2,0,0,1,1,
7t8,213,L,true,196,2,1,0,1,0,
7t8,214,L,false,390,2,1,1,1,1,
7t8,215,L,false,142,1,1,0,1,0,
7t8,216,L,true,94,2,1,1,1,0,
7t8,217,L,false,144,1,0,0,1,1,
7t8,218,L,false,128,1,1,1,0,1,
7t8,219,L,false,72,2,1,1,1,1,
7t8,220,L,true,183,1,0,0,0,0,
7t8,221,L,true,104,1,0,1,1,1,
7t8,222,L,false,113,2,0,1,1,1,
7t8,223,L,true,42,1,0,1,1,0,
7t8,224,L,true,111,2,0,0,0,1,
7t8,225,L,true,184,2,1,0,1,1,
7t8,226,L,true,87,2,0,1,1,1,
7t8,227,L,false,480,1,1,0,1,0,
7t8,228,L,true,168,2,1,1,0,0,
7t8,229,L,true,322,2,0,1,0,0,
7t8,230,L,false,664,2,1,0,1,0,
7t8,231,L,false,359,1,0,1,0,0,
7t8,232,L,true,39,2,1,0,1,1,
7t8,233,L,true,103,1,1,0,1,1,
7t8,234,L,false,263,2,1,1,1,0,
7t8,235,L,true,2641,1,1,1,1,1,
7t8,236,L,false,279,1,0,1,0,1,
7t8,237,L,true,424,2,0,1,1,0,
7t8,238,L,true,1738,2,1,1,1,1,
7t8,239,L,false,77,1,1,1,1,1,
7t8,240,L,true,782,1,0,1,0,0,
7t8,241,L,true,191,1,0,0,1,1,
7t8,242,L,true,471,1,0,1,0,1,
7t8,243,L,false,1352,2,0,0,0,1,
7t8,244,L,true,446,1,0,1,1,1,
7t8,245,L,false,398,1,1,0,1,1,
7t8,246,L,true,759,2,0,1,1,1,
7t8,247,L,false,30,2,1,1,1,1,
7t8,248,L,true,103,1,0,0,1,1,
7t8,249,L,true,41,2,1,0,1,0,
7t8,250,L,false,0,2,0,0,0,1,
7t8,251,L,true,88,1,1,1,1,0,
7t8,252,L,true,552,2,1,1,1,0,
7t8,253,L,false,730,2,1,1,1,1,
7t8,254,L,false,652,2,0,0,0,1,
7t8,255,L,true,328,1,1,1,1,1,
7t8,256,L,true,373,1,0,1,0,0,
7t8,257,L,true,944,2,0,0,0,1,
7t8,258,L,false,2265,1,1,0,0,1,
7t8,259,L,true,639,2,0,0,1,0,
7t8,260,L,false,136,1,0,1,1,1,
7t8,261,L,false,6,1,0,0,0,0,
7t8,262,L,true,16,1,0,0,1,0,
7t8,263,L,false,232,1,1,1,1,1,
7t8,264,L,false,64,2,0,0,1,0,
7t8,265,L,true,664,1,0,0,1,0,
7t8,266,L,false,410,2,0,0,1,0,
7t8,267,L,false,712,1,1,1,1,1,
7t8,268,L,true,2697,2,1,1,1,1,
7t8,269,L,true,889,1,0,1,1,1,
7t8,270,L,false,903,2,1,0,1,1,
7t8,271,L,true,62,1,1,1,1,0,
7t8,272,L,false,465,1,0,1,1,1,
7t8,273,L,false,136,2,1,0,1,1,
7t8,274,L,true,72,2,1,1,1,0,
7t8,275,L,false,8,2,0,0,1,1,
7t8,276,L,false,40,1,1,1,1,0,
7t8,277,L,false,694,2,0,0,0,1,
7t8,278,L,true,942,1,0,1,1,1,
7t8,279,L,true,1568,2,1,0,1,1,
7t8,280,L,true,2096,2,0,0,1,0,
7t8,281,L,true,607,2,1,0,1,1,
7t8,282,L,true,560,1,0,0,1,0,
7t8,283,L,true,768,2,0,0,0,1,
7t8,284,L,false,3375,1,0,0,1,0,
7t8,285,L,false,461,2,0,1,1,1,
7t8,286,L,true,404,2,1,1,0,0,
7t8,287,L,false,1079,2,1,0,1,0,
7t8,288,L,false,2439,2,1,1,1,1,
7t8,289,L,true,681,2,0,1,0,0,
7t8,290,L,true,2159,2,0,0,1,0,
7t8,291,L,false,3024,2,1,0,0,0,
7t8,292,L,true,1971,2,0,1,0,1,
7t8,293,L,true,776,2,1,0,1,1,
7t8,294,L,true,1031,2,1,0,1,1,
7t8,295,L,true,857,2,0,0,1,1,
7t8,296,L,false,401,2,0,1,0,1,
7t8,297,L,true,2356,1,1,1,1,1,
7t8,298,L,true,1279,2,1,1,1,0,
7t8,299,L,false,1306,2,1,1,0,1,
7t8,300,L,true,429,2,0,0,1,1,
brk,brk,brk,brk,brk,brk,brk,brk,brk,brk,
7t8,301,L,false,4734,1,0,1,1,1,
7t8,302,L,false,56,1,0,1,1,1,
7t8,303,L,true,56,2,1,1,1,1,
7t8,304,L,true,112,2,0,1,1,1,
7t8,305,L,false,1015,1,0,1,1,1,
7t8,306,L,true,295,2,1,1,1,0,
7t8,307,L,true,238,2,1,0,1,1,
7t8,308,L,true,497,2,0,0,1,1,
7t8,309,L,false,289,1,0,1,1,1,
7t8,310,L,true,97,2,0,1,1,1,
7t8,311,L,true,447,2,0,0,1,0,
7t8,312,L,true,168,2,1,0,1,1,
7t8,313,L,true,63,2,1,0,1,1,
7t8,314,L,false,585,1,0,1,0,1,
7t8,315,L,true,311,2,1,0,1,1,
7t8,316,L,true,3192,2,1,0,1,0,
7t8,317,L,true,312,2,1,0,1,1,
7t8,318,L,true,487,2,1,1,0,0,
7t8,319,L,true,41,2,1,0,1,0,
7t8,320,L,true,527,1,1,1,1,1,
7t8,321,L,false,40,2,1,0,1,1,
7t8,322,L,true,151,1,1,1,1,0,
7t8,323,L,false,352,2,1,0,1,1,
7t8,324,L,true,215,1,0,1,1,1,
7t8,325,L,true,239,1,1,0,1,0,
7t8,326,L,false,432,2,1,1,1,1,
7t8,327,L,false,63,1,1,0,1,1,
7t8,328,L,true,112,1,1,0,1,1,
7t8,329,L,false,175,1,0,1,1,1,
7t8,330,L,true,488,1,0,0,0,1,
7t8,331,L,true,537,1,1,1,1,0,
7t8,332,L,true,400,1,0,0,0,1,
7t8,333,L,true,311,2,1,1,1,1,
7t8,334,L,false,584,2,1,1,1,0,
7t8,335,L,true,104,1,1,0,1,1,
7t8,336,L,true,207,1,1,0,1,1,
7t8,337,L,false,815,2,0,1,0,1,
7t8,338,L,true,375,2,0,0,0,1,
7t8,339,L,true,383,1,1,0,0,1,
7t8,340,L,false,336,2,1,0,1,0,
7t8,341,L,false,94,1,0,1,0,0,
7t8,342,L,true,267,1,1,1,1,1,
7t8,343,L,true,109,1,0,0,0,1,
7t8,344,L,false,152,1,0,0,0,1,
7t8,345,L,true,480,1,1,1,0,1,
7t8,346,L,true,240,1,0,1,0,1,
7t8,347,L,true,271,1,1,1,1,1,
7t8,348,L,false,101,2,0,0,1,1,
7t8,349,L,true,320,1,0,1,0,0,
7t8,350,L,true,207,1,0,1,0,0,
7t8,351,L,true,1464,1,0,0,1,1,
7t8,352,L,true,145,1,0,1,0,1,
7t8,353,L,false,607,2,1,1,1,0,
7t8,354,L,true,288,2,0,1,0,1,
7t8,355,L,true,709,1,1,1,1,1,
7t8,356,L,false,599,1,0,1,0,0,
7t8,357,L,true,2062,2,0,0,0,1,
7t8,358,L,true,1294,1,0,1,1,1,
7t8,359,L,true,481,2,0,1,0,1,
7t8,360,L,false,35,2,0,0,0,1,
7t8,361,L,false,54,2,0,1,0,1,
7t8,362,L,false,79,2,1,1,1,0,
7t8,363,L,true,751,2,1,1,1,0,
7t8,364,L,true,358,1,0,1,0,1,
7t8,365,L,true,71,2,1,0,1,0,
7t8,366,L,true,142,2,1,0,1,1,
7t8,367,L,false,54,2,1,0,1,1,
7t8,368,L,false,416,2,1,0,1,0,
7t8,369,L,true,16,1,0,0,1,1,
7t8,370,L,true,15,1,0,1,1,1,
7t8,371,L,true,39,1,1,1,0,0,
7t8,372,L,true,113,1,1,0,1,0,
7t8,373,L,false,1432,2,1,0,0,0,
7t8,374,L,false,153,1,0,1,1,0,
7t8,375,L,false,782,1,0,0,1,1,
7t8,376,L,false,31,2,1,0,0,1,
7t8,377,L,false,678,1,0,1,1,0,
7t8,378,L,false,527,2,0,1,0,1,
7t8,379,L,false,247,2,0,1,1,1,
7t8,380,L,true,1518,2,1,0,1,0,
7t8,381,L,true,551,1,0,0,1,1,
7t8,382,L,false,5852,2,1,1,1,1,
7t8,383,L,true,231,2,1,0,1,1,
7t8,384,L,true,471,1,1,0,0,1,
7t8,385,L,true,486,2,0,0,1,1,
7t8,386,L,false,624,2,0,0,0,1,
7t8,387,L,true,499,1,1,1,1,0,
7t8,388,L,false,376,1,1,0,1,1,
7t8,389,L,true,1361,2,0,0,0,1,
7t8,390,L,true,1023,2,1,0,1,0,
7t8,391,L,true,1223,2,1,0,1,1,
7t8,392,L,false,1910,1,1,1,1,1,
7t8,393,L,false,357,1,1,0,1,0,
7t8,394,L,false,1159,1,1,0,1,1,
7t8,395,L,true,792,2,0,0,1,1,
7t8,396,L,true,1213,2,0,0,1,0,
7t8,397,L,false,383,1,0,1,0,1,
7t8,398,L,false,543,1,0,0,0,1,
7t8,399,L,true,4559,2,1,0,1,1,
7t8,400,L,true,176,2,0,1,1,1,
brk,brk,brk,brk,brk,brk,brk,brk,brk,brk,
7t8,401,L,true,1555,1,0,0,1,0,
7t8,402,L,true,285,1,1,1,1,1,
7t8,403,L,true,40,2,1,0,1,1,
7t8,404,L,false,70,1,0,0,1,1,
7t8,405,L,false,73,1,1,1,0,0,
7t8,406,L,false,28,2,1,1,0,1,
7t8,407,L,false,303,1,0,0,1,1,
7t8,408,L,true,432,1,0,1,1,0,
7t8,409,L,true,151,1,0,1,0,1,
7t8,410,L,true,190,1,0,0,0,0,
7t8,411,L,false,366,2,0,1,1,0,
7t8,412,L,true,8,2,1,0,1,1,
7t8,413,L,false,117,1,0,1,0,1,
7t8,414,L,true,71,1,0,1,1,1,
7t8,415,L,false,304,2,1,0,1,1,
7t8,416,L,false,440,2,0,1,0,0,
7t8,417,L,true,895,1,1,0,0,1,
7t8,418,L,true,1295,2,1,1,1,1,
7t8,419,L,true,1711,2,0,1,1,1,
7t8,420,L,true,1846,2,1,1,1,1,
7t8,421,L,false,24,1,0,1,1,1,
7t8,422,L,true,143,1,1,0,1,1,
7t8,423,L,false,40,1,0,1,0,1,
7t8,424,L,true,294,2,0,0,1,0,
7t8,425,L,true,439,1,1,1,0,0,
7t8,426,L,false,375,1,1,1,0,1,
7t8,427,L,true,1223,2,0,0,1,1,
7t8,428,L,true,1122,2,0,1,0,1,
7t8,429,L,false,975,1,0,1,0,1,
7t8,430,L,false,53,1,0,1,1,0,
7t8,431,L,false,134,2,0,1,0,1,
7t8,432,L,false,1095,1,1,1,1,0,
7t8,433,L,false,588,2,0,0,0,0,
7t8,434,L,false,784,1,0,0,1,1,
7t8,435,L,true,45,1,0,0,1,1,
7t8,436,L,true,610,2,1,0,1,0,
7t8,437,L,false,925,2,0,1,1,1,
7t8,438,L,false,143,1,1,1,1,1,
7t8,439,L,false,47,1,0,1,1,1,
7t8,440,L,false,790,1,1,1,0,1,
7t8,441,L,false,482,1,1,1,1,1,
7t8,442,L,false,293,1,1,1,0,1,
7t8,443,L,false,67,2,1,1,1,0,
7t8,444,L,true,175,2,1,1,1,1,
7t8,445,L,false,369,1,1,1,1,1,
7t8,446,L,false,765,1,0,0,0,1,
7t8,447,L,true,625,2,1,0,1,0,
7t8,448,L,true,654,2,0,1,1,1,
7t8,449,L,true,918,2,0,1,1,1,
7t8,450,L,true,920,2,0,0,0,1,
7t8,451,L,true,467,2,0,0,0,1,
7t8,452,L,true,557,2,1,0,0,1,
7t8,453,L,true,448,1,0,0,1,1,
7t8,454,L,true,712,1,0,0,1,1,
7t8,455,L,true,1615,2,0,0,0,0,
7t8,456,L,false,1024,2,1,1,1,1,
7t8,457,L,false,142,1,1,1,1,1,
7t8,458,L,true,207,1,0,1,1,0,
7t8,459,L,false,239,1,1,0,1,1,
7t8,460,L,false,1118,1,1,0,0,0,
7t8,461,L,false,473,2,1,0,1,0,
7t8,462,L,false,47,1,0,0,0,1,
7t8,463,L,false,48,2,0,0,1,1,
7t8,464,L,false,470,2,0,0,0,1,
7t8,465,L,true,253,1,0,1,0,1,
7t8,466,L,true,735,1,1,1,1,1,
7t8,467,L,false,1745,1,0,1,0,1,
7t8,468,L,true,892,2,1,0,1,0,
7t8,469,L,true,1247,1,1,0,1,1,
7t8,470,L,false,1399,1,1,1,0,1,
7t8,471,L,true,2550,1,0,0,1,0,
7t8,472,L,false,1422,1,0,1,0,1,
7t8,473,L,true,856,1,1,0,1,1,
7t8,474,L,true,862,2,0,0,1,1,
7t8,475,L,true,600,1,1,0,1,1,
7t8,476,L,true,631,2,1,1,1,1,
7t8,477,L,false,480,2,1,1,1,0,
7t8,478,L,true,807,2,0,0,1,0,
7t8,479,L,true,821,1,0,0,1,1,
7t8,480,L,true,567,2,0,1,1,0,
7t8,481,L,false,6168,1,0,0,0,1,
7t8,482,L,true,414,1,0,1,1,0,
7t8,483,L,false,307,1,1,1,0,0,
7t8,484,L,true,598,2,1,0,0,1,
7t8,485,L,false,657,2,0,0,0,1,
7t8,486,L,true,315,2,1,0,1,1,
7t8,487,L,false,184,2,1,0,1,1,
7t8,488,L,false,197,2,1,1,1,1,
7t8,489,L,false,463,1,1,1,1,1,
7t8,490,L,true,2135,1,0,0,1,1,
7t8,491,L,false,2177,1,0,0,0,1,
7t8,492,L,true,676,2,0,1,1,1,
7t8,493,L,true,879,2,0,0,0,1,
7t8,494,L,true,1805,1,1,1,1,1,
7t8,495,L,false,1188,1,0,1,1,1,
7t8,496,L,false,495,1,0,1,1,1,
7t8,497,L,false,851,1,0,0,1,0,
7t8,498,L,false,316,1,1,0,1,0,
7t8,499,L,true,319,2,0,0,0,1,
7t8,500,L,false,276,1,1,0,1,1,
