"success","trial_type","trial_index","time_elapsed","internal_node_id","subject","condition","timeout","failed_images","failed_audio","failed_video","view_history","rt","response_type","key_press","response","avg_frame_time","center_x","center_y","outcome","p1conf","p2conf","p1rslt","p2rslt","correct","stimulus","question_order"
"true","fullscreen","0","3394","0.0-0.0-0.0","94t","[""L""]","","","","","","","","","","","","","","","","","","","",""
"true","preload","1","3399","0.0-0.0-1.0","94t","[""L""]","false","[]","[]","[]","","","","","","","","","","","","","","","",""
"","instructions","2","50652","0.0-1.0","94t","[""L""]","","","","","[{""page_index"":0,""viewing_time"":6507},{""page_index"":1,""viewing_time"":18976},{""page_index"":2,""viewing_time"":21768}]","47252","","","","","","","","","","","","","",""
"","psychophysics","3","61916","0.0-2.0-0.0","94t","[""L""]","","","","","","10560","key","z","z","16.671814814814812","912","513","1","1","1","1","1","true","",""
"","psychophysics","4","62920","0.0-2.0-1.0","94t","[""L""]","","","","","","null","key","null","null","16.671949152542318","912","513","1","1","1","1","1","","",""
"","psychophysics","5","63924","0.0-2.0-2.0-0.0","94t","[""L""]","","","","","","null","key","null","null","16.671866666666634","912","513","1","1","1","1","1","","",""
"","psychophysics","6","67751","0.0-2.0-0.1","94t","[""L""]","","","","","","3126","key","m","m","16.67179824561406","912","513","2","0","1","0","1","true","",""
"","psychophysics","7","68755","0.0-2.0-1.1","94t","[""L""]","","","","","","null","key","null","null","16.67254237288124","912","513","2","0","1","0","1","","",""
"","psychophysics","8","69758","0.0-2.0-2.1-0.1","94t","[""L""]","","","","","","null","key","null","null","16.671949999999924","912","513","2","0","1","0","1","","",""
"","psychophysics","9","72567","0.0-2.0-0.2","94t","[""L""]","","","","","","2106","key","z","z","16.671904191616758","912","513","2","1","0","1","0","false","",""
"","psychophysics","10","73570","0.0-2.0-1.2","94t","[""L""]","","","","","","null","key","null","null","16.671813559322075","912","513","2","1","0","1","0","","",""
"","psychophysics","11","74573","0.0-2.0-3.2-0.2","94t","[""L""]","","","","","","null","key","null","null","16.67293220338973","912","513","2","1","0","1","0","","",""
"","psychophysics","12","77687","0.0-2.0-0.3","94t","[""L""]","","","","","","2412","key","m","m","16.671935483871025","912","513","2","0","0","1","1","true","",""
"","psychophysics","13","78691","0.0-2.0-1.3","94t","[""L""]","","","","","","null","key","null","null","16.670898305084723","912","513","2","0","0","1","1","","",""
"","psychophysics","14","79695","0.0-2.0-2.3-0.3","94t","[""L""]","","","","","","null","key","null","null","16.671449999999943","912","513","2","0","0","1","1","","",""
"","psychophysics","15","83025","0.0-2.0-0.4","94t","[""L""]","","","","","","2628","key","z","z","16.67223737373739","912","513","1","1","1","1","0","true","",""
"","psychophysics","16","84032","0.0-2.0-1.4","94t","[""L""]","","","","","","null","key","null","null","16.670400000000033","912","513","1","1","1","1","0","","",""
"","psychophysics","17","85035","0.0-2.0-2.4-0.4","94t","[""L""]","","","","","","null","key","null","null","16.67250847457627","912","513","1","1","1","1","0","","",""
"","psychophysics","18","87431","0.0-2.0-0.5","94t","[""L""]","","","","","","1694","key","z","z","16.67147552447548","912","513","2","0","0","1","1","false","",""
"","psychophysics","19","88434","0.0-2.0-1.5","94t","[""L""]","","","","","","null","key","null","null","17.256649122807033","912","513","2","0","0","1","1","","",""
"","psychophysics","20","89436","0.0-2.0-3.5-0.5","94t","[""L""]","","","","","","null","key","null","null","16.671627118644132","912","513","2","0","0","1","1","","",""
"","psychophysics","21","91498","0.0-2.0-0.6","94t","[""L""]","","","","","","1360","key","z","z","16.672731707317066","912","513","1","0","0","0","1","true","",""
"","psychophysics","22","92505","0.0-2.0-1.6","94t","[""L""]","","","","","","null","key","null","null","16.672542372881484","912","513","1","0","0","0","1","","",""
"","psychophysics","23","93514","0.0-2.0-2.6-0.6","94t","[""L""]","","","","","","null","key","null","null","16.672616666666485","912","513","1","0","0","0","1","","",""
"","psychophysics","24","95577","0.0-2.0-0.7","94t","[""L""]","","","","","","1357","key","z","z","16.67212295081964","912","513","2","0","1","1","0","false","",""
"","psychophysics","25","96584","0.0-2.0-1.7","94t","[""L""]","","","","","","null","key","null","null","16.672783333333307","912","513","2","0","1","1","0","","",""
"","psychophysics","26","97597","0.0-2.0-3.7-0.7","94t","[""L""]","","","","","","null","key","null","null","17.562303571428597","912","513","2","0","1","1","0","","",""
"","psychophysics","27","99496","0.0-2.0-0.8","94t","[""L""]","","","","","","1196","key","m","m","16.67163716814163","912","513","2","0","0","0","1","true","",""
"","psychophysics","28","100515","0.0-2.0-1.8","94t","[""L""]","","","","","","null","key","null","null","16.672866666666717","912","513","2","0","0","0","1","","",""
"","psychophysics","29","101531","0.0-2.0-2.8-0.8","94t","[""L""]","","","","","","null","key","null","null","16.67101666666664","912","513","2","0","0","0","1","","",""
"","psychophysics","30","103119","0.0-2.0-0.9","94t","[""L""]","","","","","","880","key","z","z","16.671842105263128","912","513","1","1","1","1","1","true","",""
"","psychophysics","31","104126","0.0-2.0-1.9","94t","[""L""]","","","","","","null","key","null","null","16.671135593220242","912","513","1","1","1","1","1","","",""
"","psychophysics","32","105133","0.0-2.0-2.9-0.9","94t","[""L""]","","","","","","null","key","null","null","16.674016949152417","912","513","1","1","1","1","1","","",""
"","psychophysics","33","108951","0.0-2.0-0.10","94t","[""L""]","","","","","","3114","key","z","z","16.671262008733613","912","513","1","1","1","1","1","true","",""
"","psychophysics","34","109967","0.0-2.0-1.10","94t","[""L""]","","","","","","null","key","null","null","16.671813559322075","912","513","1","1","1","1","1","","",""
"","psychophysics","35","110976","0.0-2.0-2.10-0.10","94t","[""L""]","","","","","","null","key","null","null","16.671866666666514","912","513","1","1","1","1","1","","",""
"","psychophysics","36","112536","0.0-2.0-0.11","94t","[""L""]","","","","","","851","key","m","m","16.67174193548381","912","513","2","0","1","1","1","true","",""
"","psychophysics","37","113542","0.0-2.0-1.11","94t","[""L""]","","","","","","null","key","null","null","16.672050847457594","912","513","2","0","1","1","1","","",""
"","psychophysics","38","114551","0.0-2.0-2.11-0.11","94t","[""L""]","","","","","","null","key","null","null","16.6720677966102","912","513","2","0","1","1","1","","",""
"","psychophysics","39","117473","0.0-2.0-0.12","94t","[""L""]","","","","","","2220","key","m","m","16.672148571428593","912","513","2","1","0","1","1","true","",""
"","psychophysics","40","118487","0.0-2.0-1.12","94t","[""L""]","","","","","","null","key","null","null","16.670542372881446","912","513","2","1","0","1","1","","",""
"","psychophysics","41","119491","0.0-2.0-2.12-0.12","94t","[""L""]","","","","","","null","key","null","null","16.67408333333345","912","513","2","1","0","1","1","","",""
"","psychophysics","42","121785","0.0-2.0-0.13","94t","[""L""]","","","","","","1588","key","m","m","16.672397058823503","912","513","1","0","1","1","0","false","",""
"","psychophysics","43","122798","0.0-2.0-1.13","94t","[""L""]","","","","","","null","key","null","null","16.67288333333345","912","513","1","0","1","1","0","","",""
"","psychophysics","44","123807","0.0-2.0-3.13-0.13","94t","[""L""]","","","","","","null","key","null","null","16.671133333333515","912","513","1","0","1","1","0","","",""
"","psychophysics","45","125679","0.0-2.0-0.14","94t","[""L""]","","","","","","1163","key","m","m","16.671882882882866","912","513","2","0","1","0","1","true","",""
"","psychophysics","46","126689","0.0-2.0-1.14","94t","[""L""]","","","","","","null","key","null","null","16.671457627118553","912","513","2","0","1","0","1","","",""
"","psychophysics","47","127702","0.0-2.0-2.14-0.14","94t","[""L""]","","","","","","null","key","null","null","16.671933333333435","912","513","2","0","1","0","1","","",""
"","psychophysics","48","129127","0.0-2.0-0.15","94t","[""L""]","","","","","","721","key","z","z","16.671788235294105","912","513","1","0","0","1","1","true","",""
"","psychophysics","49","130140","0.0-2.0-1.15","94t","[""L""]","","","","","","null","key","null","null","16.671661016949102","912","513","1","0","0","1","1","","",""
"","psychophysics","50","131149","0.0-2.0-2.15-0.15","94t","[""L""]","","","","","","null","key","null","null","16.67210000000026","912","513","1","0","0","1","1","","",""
"","psychophysics","51","133176","0.0-2.0-0.16","94t","[""L""]","","","","","","1318","key","m","m","16.671851239669376","912","513","2","0","1","1","0","true","",""
"","psychophysics","52","134187","0.0-2.0-1.16","94t","[""L""]","","","","","","null","key","null","null","16.67305084745749","912","513","2","0","1","1","0","","",""
"","psychophysics","53","135192","0.0-2.0-2.16-0.16","94t","[""L""]","","","","","","null","key","null","null","16.67127118644036","912","513","2","0","1","1","0","","",""
"","psychophysics","54","136839","0.0-2.0-0.17","94t","[""L""]","","","","","","944","key","z","z","16.672295918367443","912","513","1","0","1","1","0","true","",""
"","psychophysics","55","137843","0.0-2.0-1.17","94t","[""L""]","","","","","","null","key","null","null","16.671033898304845","912","513","1","0","1","1","0","","",""
"","psychophysics","56","138854","0.0-2.0-2.17-0.17","94t","[""L""]","","","","","","null","key","null","null","16.671816666666807","912","513","1","0","1","1","0","","",""
"","psychophysics","57","140945","0.0-2.0-0.18","94t","[""L""]","","","","","","1386","key","z","z","16.67250806451592","912","513","1","1","0","1","1","true","",""
"","psychophysics","58","141961","0.0-2.0-1.18","94t","[""L""]","","","","","","null","key","null","null","16.672783333333307","912","513","1","1","0","1","1","","",""
"","psychophysics","59","142978","0.0-2.0-2.18-0.18","94t","[""L""]","","","","","","null","key","null","null","16.672866666666717","912","513","1","1","0","1","1","","",""
"","psychophysics","60","145208","0.0-2.0-0.19","94t","[""L""]","","","","","","1524","key","m","m","16.671255639097758","912","513","1","1","0","1","0","false","",""
"","psychophysics","61","146213","0.0-2.0-1.19","94t","[""L""]","","","","","","null","key","null","null","16.674000000000056","912","513","1","1","0","1","0","","",""
"","psychophysics","62","147229","0.0-2.0-3.19-0.19","94t","[""L""]","","","","","","null","key","null","null","16.672033333333577","912","513","1","1","0","1","0","","",""
"","psychophysics","63","149192","0.0-2.0-0.20","94t","[""L""]","","","","","","1253","key","m","m","16.671683760683756","912","513","2","0","0","1","1","true","",""
"","psychophysics","64","150203","0.0-2.0-1.20","94t","[""L""]","","","","","","null","key","null","null","16.672516666666585","912","513","2","0","0","1","1","","",""
"","psychophysics","65","151214","0.0-2.0-2.20-0.20","94t","[""L""]","","","","","","null","key","null","null","16.671932203389833","912","513","2","0","0","1","1","","",""
"","psychophysics","66","152695","0.0-2.0-0.21","94t","[""L""]","","","","","","764","key","m","m","16.67084090909074","912","513","2","1","1","1","1","true","",""
"","psychophysics","67","153698","0.0-2.0-1.21","94t","[""L""]","","","","","","null","key","null","null","16.673083333333004","912","513","2","1","1","1","1","","",""
"","psychophysics","68","154705","0.0-2.0-2.21-0.21","94t","[""L""]","","","","","","null","key","null","null","16.670491525423376","912","513","2","1","1","1","1","","",""
"","psychophysics","69","156063","0.0-2.0-0.22","94t","[""L""]","","","","","","652","key","z","z","16.671600000000034","912","513","1","1","0","1","1","true","",""
"","psychophysics","70","157066","0.0-2.0-1.22","94t","[""L""]","","","","","","null","key","null","null","16.672016666666604","912","513","1","1","0","1","1","","",""
"","psychophysics","71","158073","0.0-2.0-2.22-0.22","94t","[""L""]","","","","","","null","key","null","null","16.671288135593215","912","513","1","1","0","1","1","","",""
"","psychophysics","72","159400","0.0-2.0-0.23","94t","[""L""]","","","","","","618","key","z","z","16.671474358974358","912","513","1","1","0","1","1","true","",""
"","psychophysics","73","160416","0.0-2.0-1.23","94t","[""L""]","","","","","","null","key","null","null","16.67136666666629","912","513","1","1","0","1","1","","",""
"","psychophysics","74","161423","0.0-2.0-2.23-0.23","94t","[""L""]","","","","","","null","key","null","null","16.672516666666585","912","513","1","1","0","1","1","","",""
"","psychophysics","75","162719","0.0-2.0-0.24","94t","[""L""]","","","","","","592","key","m","m","16.672519480519288","912","513","2","1","0","1","1","true","",""
"","psychophysics","76","163730","0.0-2.0-1.24","94t","[""L""]","","","","","","null","key","null","null","16.674762711864187","912","513","2","1","0","1","1","","",""
"","psychophysics","77","164751","0.0-2.0-2.24-0.24","94t","[""L""]","","","","","","null","key","null","null","16.672516666666585","912","513","2","1","0","1","1","","",""
"","psychophysics","78","166191","0.0-2.0-0.25","94t","[""L""]","","","","","","735","key","z","z","16.66995348837186","912","513","1","0","1","1","1","true","",""
"","psychophysics","79","167201","0.0-2.0-1.25","94t","[""L""]","","","","","","null","key","null","null","16.67322033898307","912","513","1","0","1","1","1","","",""
"","psychophysics","80","168219","0.0-2.0-2.25-0.25","94t","[""L""]","","","","","","null","key","null","null","16.673199999999877","912","513","1","0","1","1","1","","",""
"","psychophysics","81","169442","0.0-2.0-0.26","94t","[""L""]","","","","","","505","key","z","z","16.67195890410939","912","513","2","0","0","0","0","false","",""
"","psychophysics","82","170453","0.0-2.0-1.26","94t","[""L""]","","","","","","null","key","null","null","16.673254237288287","912","513","2","0","0","0","0","","",""
"","psychophysics","83","171466","0.0-2.0-3.26-0.26","94t","[""L""]","","","","","","null","key","null","null","16.67189999999973","912","513","2","0","0","0","0","","",""
"","psychophysics","84","172767","0.0-2.0-0.27","94t","[""L""]","","","","","","597","key","m","m","16.671545454545488","912","513","2","0","0","1","0","true","",""
"","psychophysics","85","173770","0.0-2.0-1.27","94t","[""L""]","","","","","","null","key","null","null","16.672016949152624","912","513","2","0","0","1","0","","",""
"","psychophysics","86","174788","0.0-2.0-2.27-0.27","94t","[""L""]","","","","","","null","key","null","null","16.671783333333345","912","513","2","0","0","1","0","","",""
"","psychophysics","87","176024","0.0-2.0-0.28","94t","[""L""]","","","","","","533","key","z","z","16.673391891891967","912","513","2","0","0","0","0","false","",""
"","psychophysics","88","177039","0.0-2.0-1.28","94t","[""L""]","","","","","","null","key","null","null","16.672491525423663","912","513","2","0","0","0","0","","",""
"","psychophysics","89","178056","0.0-2.0-3.28-0.28","94t","[""L""]","","","","","","null","key","null","null","16.671249999999905","912","513","2","0","0","0","0","","",""
"","psychophysics","90","179225","0.0-2.0-0.29","94t","[""L""]","","","","","","457","key","z","z","16.67191428571449","912","513","2","0","1","0","1","false","",""
"","psychophysics","91","180233","0.0-2.0-1.29","94t","[""L""]","","","","","","null","key","null","null","16.672915254237616","912","513","2","0","1","0","1","","",""
"","psychophysics","92","181248","0.0-2.0-3.29-0.29","94t","[""L""]","","","","","","null","key","null","null","16.673249999999825","912","513","2","0","1","0","1","","",""
"","psychophysics","93","182599","0.0-2.0-0.30","94t","[""L""]","","","","","","642","key","m","m","16.670587499999964","912","513","1","0","1","0","0","false","",""
"","psychophysics","94","183607","0.0-2.0-1.30","94t","[""L""]","","","","","","null","key","null","null","16.671508474576374","912","513","1","0","1","0","0","","",""
"","psychophysics","95","184618","0.0-2.0-3.30-0.30","94t","[""L""]","","","","","","null","key","null","null","16.672333333333274","912","513","1","0","1","0","0","","",""
"","psychophysics","96","186161","0.0-2.0-0.31","94t","[""L""]","","","","","","837","key","m","m","16.67244565217413","912","513","1","0","0","1","0","false","",""
"","psychophysics","97","187168","0.0-2.0-1.31","94t","[""L""]","","","","","","null","key","null","null","16.67155932203395","912","513","1","0","0","1","0","","",""
"","psychophysics","98","188175","0.0-2.0-3.31-0.31","94t","[""L""]","","","","","","null","key","null","null","16.67328813559301","912","513","1","0","0","1","0","","",""
"","psychophysics","99","189175","0.0-2.0-0.32","94t","[""L""]","","","","","","297","key","m","m","16.670474576271015","912","513","1","1","0","1","1","false","",""
"","psychophysics","100","190187","0.0-2.0-1.32","94t","[""L""]","","","","","","null","key","null","null","16.672199999999915","912","513","1","1","0","1","1","","",""
"","psychophysics","101","191193","0.0-2.0-3.32-0.32","94t","[""L""]","","","","","","null","key","null","null","16.673508474576163","912","513","1","1","0","1","1","","",""
"","psychophysics","102","192296","0.0-2.0-0.33","94t","[""L""]","","","","","","398","key","z","z","16.67224242424224","912","513","1","0","0","1","0","true","",""
"","psychophysics","103","193310","0.0-2.0-1.33","94t","[""L""]","","","","","","null","key","null","null","16.6720677966102","912","513","1","0","0","1","0","","",""
"","psychophysics","104","194327","0.0-2.0-2.33-0.33","94t","[""L""]","","","","","","null","key","null","null","16.672450000000147","912","513","1","0","0","1","0","","",""
"","psychophysics","105","195600","0.0-2.0-0.34","94t","[""L""]","","","","","","565","key","m","m","16.671144736841885","912","513","1","0","1","0","1","false","",""
"","psychophysics","106","196611","0.0-2.0-1.34","94t","[""L""]","","","","","","null","key","null","null","16.671745762711893","912","513","1","0","1","0","1","","",""
"","psychophysics","107","197628","0.0-2.0-3.34-0.34","94t","[""L""]","","","","","","null","key","null","null","16.670649999999537","912","513","1","0","1","0","1","","",""
"","psychophysics","108","198824","0.0-2.0-0.35","94t","[""L""]","","","","","","489","key","z","z","16.671197183098574","912","513","1","0","1","0","1","true","",""
"","psychophysics","109","199845","0.0-2.0-1.35","94t","[""L""]","","","","","","null","key","null","null","16.671450000000185","912","513","1","0","1","0","1","","",""
"","psychophysics","110","200862","0.0-2.0-2.35-0.35","94t","[""L""]","","","","","","null","key","null","null","16.672516666666585","912","513","1","0","1","0","1","","",""
"","psychophysics","111","201752","0.0-2.0-0.36","94t","[""L""]","","","","","","178","key","z","z","16.672566037735997","912","513","1","1","0","1","0","true","",""
"","psychophysics","112","202763","0.0-2.0-1.36","94t","[""L""]","","","","","","null","key","null","null","16.67130508474607","912","513","1","1","0","1","0","","",""
"","psychophysics","113","203777","0.0-2.0-2.36-0.36","94t","[""L""]","","","","","","null","key","null","null","16.671183333333467","912","513","1","1","0","1","0","","",""
"","psychophysics","114","204800","0.0-2.0-0.37","94t","[""L""]","","","","","","320","key","z","z","16.67214754098343","912","513","2","0","1","1","0","false","",""
"","psychophysics","115","205814","0.0-2.0-1.37","94t","[""L""]","","","","","","null","key","null","null","16.67179661016947","912","513","2","0","1","1","0","","",""
"","psychophysics","116","206831","0.0-2.0-3.37-0.37","94t","[""L""]","","","","","","null","key","null","null","16.670916666666745","912","513","2","0","1","1","0","","",""
"","psychophysics","117","208024","0.0-2.0-0.38","94t","[""L""]","","","","","","490","key","m","m","16.672394366197462","912","513","1","1","0","0","0","false","",""
"","psychophysics","118","209032","0.0-2.0-1.38","94t","[""L""]","","","","","","null","key","null","null","16.671847457627045","912","513","1","1","0","0","0","","",""
"","psychophysics","119","210040","0.0-2.0-3.38-0.38","94t","[""L""]","","","","","","null","key","null","null","16.680433333333347","912","513","1","1","0","0","0","","",""
"","psychophysics","120","211487","0.0-2.0-0.39","94t","[""L""]","","","","","","742","key","m","m","16.67146511627923","912","513","2","0","1","0","1","true","",""
"","psychophysics","121","212491","0.0-2.0-1.39","94t","[""L""]","","","","","","null","key","null","null","16.674067796609993","912","513","2","0","1","0","1","","",""
"","psychophysics","122","213500","0.0-2.0-2.39-0.39","94t","[""L""]","","","","","","null","key","null","null","16.67291525423712","912","513","2","0","1","0","1","","",""
"","psychophysics","123","214570","0.0-2.0-0.40","94t","[""L""]","","","","","","365","key","z","z","16.672062500000266","912","513","1","1","0","0","1","true","",""
"","psychophysics","124","215577","0.0-2.0-1.40","94t","[""L""]","","","","","","null","key","null","null","16.67130508474607","912","513","1","1","0","0","1","","",""
"","psychophysics","125","216587","0.0-2.0-2.40-0.40","94t","[""L""]","","","","","","null","key","null","null","16.671416666666726","912","513","1","1","0","0","1","","",""
"","psychophysics","126","217904","0.0-2.0-0.41","94t","[""L""]","","","","","","614","key","m","m","16.88938961038933","912","513","1","1","0","1","0","false","",""
"","psychophysics","127","218911","0.0-2.0-1.41","94t","[""L""]","","","","","","null","key","null","null","16.671881355932257","912","513","1","1","0","1","0","","",""
"","psychophysics","128","219921","0.0-2.0-3.41-0.41","94t","[""L""]","","","","","","null","key","null","null","16.671799999999834","912","513","1","1","0","1","0","","",""
"","psychophysics","129","222991","0.0-2.0-0.42","94t","[""L""]","","","","","","2367","key","m","m","16.671622950819707","912","513","1","1","0","0","1","false","",""
"","psychophysics","130","223994","0.0-2.0-1.42","94t","[""L""]","","","","","","null","key","null","null","16.671423728813583","912","513","1","1","0","0","1","","",""
"","psychophysics","131","224997","0.0-2.0-3.42-0.42","94t","[""L""]","","","","","","null","key","null","null","16.673610169491315","912","513","1","1","0","0","1","","",""
"","psychophysics","132","226848","0.0-2.0-0.43","94t","[""L""]","","","","","","1146","key","z","z","16.67208181818185","912","513","2","0","1","0","0","false","",""
"","psychophysics","133","227857","0.0-2.0-1.43","94t","[""L""]","","","","","","null","key","null","null","16.67290000000018","912","513","2","0","1","0","0","","",""
"","psychophysics","134","228865","0.0-2.0-3.43-0.43","94t","[""L""]","","","","","","null","key","null","null","16.67201694915213","912","513","2","0","1","0","0","","",""
"","psychophysics","135","230928","0.0-2.0-0.44","94t","[""L""]","","","","","","1359","key","m","m","16.67222764227649","912","513","2","0","1","1","1","true","",""
"","psychophysics","136","231935","0.0-2.0-1.44","94t","[""L""]","","","","","","null","key","null","null","16.671932203389833","912","513","2","0","1","1","1","","",""
"","psychophysics","137","232945","0.0-2.0-2.44-0.44","94t","[""L""]","","","","","","null","key","null","null","16.671400000000236","912","513","2","0","1","1","1","","",""
"","psychophysics","138","234416","0.0-2.0-0.45","94t","[""L""]","","","","","","767","key","m","m","16.67186206896574","912","513","2","1","0","1","1","true","",""
"","psychophysics","139","235423","0.0-2.0-1.45","94t","[""L""]","","","","","","null","key","null","null","16.664983050847894","912","513","2","1","0","1","1","","",""
"","psychophysics","140","236432","0.0-2.0-2.45-0.45","94t","[""L""]","","","","","","null","key","null","null","16.672266666666836","912","513","2","1","0","1","1","","",""
"","psychophysics","141","237840","0.0-2.0-0.46","94t","[""L""]","","","","","","704","key","z","z","16.671795180723134","912","513","1","1","1","1","1","true","",""
"","psychophysics","142","238848","0.0-2.0-1.46","94t","[""L""]","","","","","","null","key","null","null","16.672550000000047","912","513","1","1","1","1","1","","",""
"","psychophysics","143","239856","0.0-2.0-2.46-0.46","94t","[""L""]","","","","","","null","key","null","null","16.67008474576277","912","513","1","1","1","1","1","","",""
"","psychophysics","144","241287","0.0-2.0-0.47","94t","[""L""]","","","","","","726","key","z","z","16.67163529411773","912","513","1","1","1","1","1","true","",""
"","psychophysics","145","242291","0.0-2.0-1.47","94t","[""L""]","","","","","","null","key","null","null","16.67320338983071","912","513","1","1","1","1","1","","",""
"","psychophysics","146","243301","0.0-2.0-2.47-0.47","94t","[""L""]","","","","","","null","key","null","null","16.671366666666774","912","513","1","1","1","1","1","","",""
"","psychophysics","147","245529","0.0-2.0-0.48","94t","[""L""]","","","","","","1525","key","z","z","16.671278195488714","912","513","2","0","1","1","0","false","",""
"","psychophysics","148","246534","0.0-2.0-1.48","94t","[""L""]","","","","","","null","key","null","null","16.672338983050935","912","513","2","0","1","1","0","","",""
"","psychophysics","149","247541","0.0-2.0-3.48-0.48","94t","[""L""]","","","","","","null","key","null","null","16.67108474576291","912","513","2","0","1","1","0","","",""
"","psychophysics","150","249064","0.0-2.0-0.49","94t","[""L""]","","","","","","821","key","m","m","16.672329670329677","912","513","1","0","0","1","0","false","",""
"","psychophysics","151","250069","0.0-2.0-1.49","94t","[""L""]","","","","","","null","key","null","null","16.67008474576277","912","513","1","0","0","1","0","","",""
"","psychophysics","152","251072","0.0-2.0-3.49-0.49","94t","[""L""]","","","","","","null","key","null","null","16.673677966101252","912","513","1","0","0","1","0","","",""
"","psychophysics","153","253487","0.0-2.0-0.50","94t","[""L""]","","","","","","1711","key","z","z","16.67164583333336","912","513","2","1","1","0","1","false","",""
"","psychophysics","154","254489","0.0-2.0-1.50","94t","[""L""]","","","","","","null","key","null","null","16.672694915254457","912","513","2","1","1","0","1","","",""
"","psychophysics","155","255491","0.0-2.0-3.50-0.50","94t","[""L""]","","","","","","null","key","null","null","16.672440677966087","912","513","2","1","1","0","1","","",""
"","psychophysics","156","260671","0.0-2.0-0.51","94t","[""L""]","","","","","","4477","key","m","m","16.671825806451622","912","513","1","0","1","1","0","false","",""
"","psychophysics","157","261675","0.0-2.0-1.51","94t","[""L""]","","","","","","null","key","null","null","16.671101694915276","912","513","1","0","1","1","0","","",""
"","psychophysics","158","262679","0.0-2.0-3.51-0.51","94t","[""L""]","","","","","","null","key","null","null","16.671423728813583","912","513","1","0","1","1","0","","",""
"","psychophysics","159","265703","0.0-2.0-0.52","94t","[""L""]","","","","","","2321","key","m","m","16.67182320441976","912","513","2","1","0","1","1","true","",""
"","psychophysics","160","266705","0.0-2.0-1.52","94t","[""L""]","","","","","","null","key","null","null","16.671610169491526","912","513","2","1","0","1","1","","",""
"","psychophysics","161","267708","0.0-2.0-2.52-0.52","94t","[""L""]","","","","","","null","key","null","null","16.671627118643887","912","513","2","1","0","1","1","","",""
"","psychophysics","162","270735","0.0-2.0-0.53","94t","[""L""]","","","","","","2326","key","m","m","16.671911602209835","912","513","1","1","1","1","1","false","",""
"","psychophysics","163","271738","0.0-2.0-1.53","94t","[""L""]","","","","","","null","key","null","null","16.673254237288287","912","513","1","1","1","1","1","","",""
"","psychophysics","164","272746","0.0-2.0-3.53-0.53","94t","[""L""]","","","","","","null","key","null","null","16.67116949152521","912","513","1","1","1","1","1","","",""
"","psychophysics","165","275111","0.0-2.0-0.54","94t","[""L""]","","","","","","1663","key","z","z","16.671312056737786","912","513","2","1","0","0","0","false","",""
"","psychophysics","166","276114","0.0-2.0-1.54","94t","[""L""]","","","","","","null","key","null","null","16.67213559322063","912","513","2","1","0","0","0","","",""
"","psychophysics","167","277116","0.0-2.0-3.54-0.54","94t","[""L""]","","","","","","null","key","null","null","16.67184745762655","912","513","2","1","0","0","0","","",""
"","psychophysics","168","279455","0.0-2.0-0.55","94t","[""L""]","","","","","","1637","key","z","z","16.671821428571793","912","513","2","0","1","0","0","false","",""
"","psychophysics","169","280460","0.0-2.0-1.55","94t","[""L""]","","","","","","null","key","null","null","16.673864406780183","912","513","2","0","1","0","0","","",""
"","psychophysics","170","281469","0.0-2.0-3.55-0.55","94t","[""L""]","","","","","","null","key","null","null","16.66945762711802","912","513","2","0","1","0","0","","",""
"","psychophysics","171","284839","0.0-2.0-0.56","94t","[""L""]","","","","","","2669","key","m","m","16.671683168316797","912","513","2","1","0","1","1","true","",""
"","psychophysics","172","285843","0.0-2.0-1.56","94t","[""L""]","","","","","","null","key","null","null","16.67203389830449","912","513","2","1","0","1","1","","",""
"","psychophysics","173","286846","0.0-2.0-2.56-0.56","94t","[""L""]","","","","","","null","key","null","null","16.67296610169519","912","513","2","1","0","1","1","","",""
"","psychophysics","174","290079","0.0-2.0-0.57","94t","[""L""]","","","","","","2531","key","z","z","16.6718756476685","912","513","2","0","0","0","0","false","",""
"","psychophysics","175","291082","0.0-2.0-1.57","94t","[""L""]","","","","","","null","key","null","null","16.67144067796693","912","513","2","0","0","0","0","","",""
"","psychophysics","176","292085","0.0-2.0-3.57-0.57","94t","[""L""]","","","","","","null","key","null","null","16.672220338982434","912","513","2","0","0","0","0","","",""
"","psychophysics","177","294607","0.0-2.0-0.58","94t","[""L""]","","","","","","1821","key","m","m","16.672120000000188","912","513","1","0","1","0","1","false","",""
"","psychophysics","178","295613","0.0-2.0-1.58","94t","[""L""]","","","","","","null","key","null","null","16.671833333333293","912","513","1","0","1","0","1","","",""
"","psychophysics","179","296616","0.0-2.0-3.58-0.58","94t","[""L""]","","","","","","null","key","null","null","16.673440677966227","912","513","1","0","1","0","1","","",""
"","psychophysics","180","299551","0.0-2.0-0.59","94t","[""L""]","","","","","","2231","key","z","z","16.67179999999968","912","513","2","0","1","0","1","false","",""
"","psychophysics","181","300555","0.0-2.0-1.59","94t","[""L""]","","","","","","null","key","null","null","16.67203389830548","912","513","2","0","1","0","1","","",""
"","psychophysics","182","301565","0.0-2.0-3.59-0.59","94t","[""L""]","","","","","","null","key","null","null","16.954372881356257","912","513","2","0","1","0","1","","",""
"","psychophysics","183","304481","0.0-2.0-0.60","94t","[""L""]","","","","","","2212","key","m","m","16.672040229885045","912","513","1","0","0","1","1","false","",""
"","psychophysics","184","305488","0.0-2.0-1.60","94t","[""L""]","","","","","","null","key","null","null","16.670542372880952","912","513","1","0","0","1","1","","",""
"","psychophysics","185","306492","0.0-2.0-3.60-0.60","94t","[""L""]","","","","","","null","key","null","null","16.671864406779896","912","513","1","0","0","1","1","","",""
"","psychophysics","186","310455","0.0-2.0-0.61","94t","[""L""]","","","","","","3262","key","z","z","16.6722869198312","912","513","1","0","0","0","1","true","",""
"","psychophysics","187","311461","0.0-2.0-1.61","94t","[""L""]","","","","","","null","key","null","null","16.673389830509144","912","513","1","0","0","0","1","","",""
"","psychophysics","188","312471","0.0-2.0-2.61-0.61","94t","[""L""]","","","","","","null","key","null","null","16.672100000000015","912","513","1","0","0","0","1","","",""
"","psychophysics","189","314694","0.0-2.0-0.62","94t","[""L""]","","","","","","1520","key","z","z","16.67121969696988","912","513","2","0","1","1","1","false","",""
"","psychophysics","190","315697","0.0-2.0-1.62","94t","[""L""]","","","","","","null","key","null","null","16.672254237288143","912","513","2","0","1","1","1","","",""
"","psychophysics","191","316700","0.0-2.0-3.62-0.62","94t","[""L""]","","","","","","null","key","null","null","16.674016666666528","912","513","2","0","1","1","1","","",""
"","psychophysics","192","319327","0.0-2.0-0.63","94t","[""L""]","","","","","","1922","key","m","m","16.671211538461367","912","513","1","1","1","1","1","false","",""
"","psychophysics","193","320335","0.0-2.0-1.63","94t","[""L""]","","","","","","null","key","null","null","16.672450000000147","912","513","1","1","1","1","1","","",""
"","psychophysics","194","321344","0.0-2.0-3.63-0.63","94t","[""L""]","","","","","","null","key","null","null","16.66966101694931","912","513","1","1","1","1","1","","",""
"","psychophysics","195","323166","0.0-2.0-0.64","94t","[""L""]","","","","","","1121","key","m","m","16.671583333333494","912","513","1","1","1","0","0","false","",""
"","psychophysics","196","324169","0.0-2.0-1.64","94t","[""L""]","","","","","","null","key","null","null","16.672433333332688","912","513","1","1","1","0","0","","",""
"","psychophysics","197","325175","0.0-2.0-3.64-0.64","94t","[""L""]","","","","","","null","key","null","null","16.671101694914782","912","513","1","1","1","0","0","","",""
"","psychophysics","198","327087","0.0-2.0-0.65","94t","[""L""]","","","","","","1211","key","z","z","16.673131578947057","912","513","1","1","1","1","0","true","",""
"","psychophysics","199","328094","0.0-2.0-1.65","94t","[""L""]","","","","","","null","key","null","null","16.669237288135356","912","513","1","1","1","1","0","","",""
"","psychophysics","200","329097","0.0-2.0-2.65-0.65","94t","[""L""]","","","","","","null","key","null","null","16.674186440677996","912","513","1","1","1","1","0","","",""
"","psychophysics","201","330918","0.0-2.0-0.66","94t","[""L""]","","","","","","1118","key","z","z","16.671472222221954","912","513","1","0","1","0","1","true","",""
"","psychophysics","202","331923","0.0-2.0-1.66","94t","[""L""]","","","","","","null","key","null","null","16.672749999999844","912","513","1","0","1","0","1","","",""
"","psychophysics","203","332932","0.0-2.0-2.66-0.66","94t","[""L""]","","","","","","null","key","null","null","16.671661016949596","912","513","1","0","1","0","1","","",""
"","psychophysics","204","334430","0.0-2.0-0.67","94t","[""L""]","","","","","","795","key","z","z","16.671685393258088","912","513","1","1","1","1","1","true","",""
"","psychophysics","205","335432","0.0-2.0-1.67","94t","[""L""]","","","","","","null","key","null","null","16.67106779661006","912","513","1","1","1","1","1","","",""
"","psychophysics","206","336435","0.0-2.0-2.67-0.67","94t","[""L""]","","","","","","null","key","null","null","16.672661016949736","912","513","1","1","1","1","1","","",""
"","psychophysics","207","337935","0.0-2.0-0.68","94t","[""L""]","","","","","","795","key","z","z","16.66977528089872","912","513","2","0","1","1","0","false","",""
"","psychophysics","208","338943","0.0-2.0-1.68","94t","[""L""]","","","","","","null","key","null","null","16.67168333333393","912","513","2","0","1","1","0","","",""
"","psychophysics","209","339953","0.0-2.0-3.68-0.68","94t","[""L""]","","","","","","null","key","null","null","16.669915254236695","912","513","2","0","1","1","0","","",""
"","psychophysics","210","341342","0.0-2.0-0.69","94t","[""L""]","","","","","","687","key","m","m","16.6721566265059","912","513","2","1","0","1","0","true","",""
"","psychophysics","211","342344","0.0-2.0-1.69","94t","[""L""]","","","","","","null","key","null","null","16.671711864406678","912","513","2","1","0","1","0","","",""
"","psychophysics","212","343348","0.0-2.0-2.69-0.69","94t","[""L""]","","","","","","null","key","null","null","16.673118644067426","912","513","2","1","0","1","0","","",""
"","psychophysics","213","344793","0.0-2.0-0.70","94t","[""L""]","","","","","","741","key","m","m","16.672639534883825","912","513","1","1","0","0","1","false","",""
"","psychophysics","214","345800","0.0-2.0-1.70","94t","[""L""]","","","","","","null","key","null","null","16.670847457627396","912","513","1","1","0","0","1","","",""
"","psychophysics","215","346805","0.0-2.0-3.70-0.70","94t","[""L""]","","","","","","null","key","null","null","16.672338983050935","912","513","1","1","0","0","1","","",""
"","psychophysics","216","348150","0.0-2.0-0.71","94t","[""L""]","","","","","","640","key","z","z","16.67094999999972","912","513","1","0","1","0","1","true","",""
"","psychophysics","217","349152","0.0-2.0-1.71","94t","[""L""]","","","","","","null","key","null","null","16.674000000000056","912","513","1","0","1","0","1","","",""
"","psychophysics","218","350162","0.0-2.0-2.71-0.71","94t","[""L""]","","","","","","null","key","null","null","16.671533333332626","912","513","1","0","1","0","1","","",""
"","psychophysics","219","351742","0.0-2.0-0.72","94t","[""L""]","","","","","","879","key","z","z","16.671978494623723","912","513","2","1","0","0","1","false","",""
"","psychophysics","220","352746","0.0-2.0-1.72","94t","[""L""]","","","","","","null","key","null","null","16.67345000000011","912","513","2","1","0","0","1","","",""
"","psychophysics","221","353755","0.0-2.0-3.72-0.72","94t","[""L""]","","","","","","null","key","null","null","16.672271186440504","912","513","2","1","0","0","1","","",""
"","psychophysics","222","355719","0.0-2.0-0.73","94t","[""L""]","","","","","","1259","key","m","m","16.67200854700855","912","513","2","1","0","1","1","true","",""
"","psychophysics","223","356728","0.0-2.0-1.73","94t","[""L""]","","","","","","null","key","null","null","16.954271186441105","912","513","2","1","0","1","1","","",""
"","psychophysics","224","357734","0.0-2.0-2.73-0.73","94t","[""L""]","","","","","","null","key","null","null","16.67208474576256","912","513","2","1","0","1","1","","",""
"","psychophysics","225","360087","0.0-2.0-0.74","94t","[""L""]","","","","","","1649","key","z","z","16.67191428571449","912","513","1","0","0","0","1","true","",""
"","psychophysics","226","361096","0.0-2.0-1.74","94t","[""L""]","","","","","","null","key","null","null","16.673050847457983","912","513","1","0","0","0","1","","",""
"","psychophysics","227","362106","0.0-2.0-2.74-0.74","94t","[""L""]","","","","","","null","key","null","null","16.67166666666647","912","513","1","0","0","0","1","","",""
"","psychophysics","228","364816","0.0-2.0-0.75","94t","[""L""]","","","","","","2006","key","z","z","16.67203086419757","912","513","1","0","0","1","1","true","",""
"","psychophysics","229","365824","0.0-2.0-1.75","94t","[""L""]","","","","","","null","key","null","null","16.67203389830548","912","513","1","0","0","1","1","","",""
"","psychophysics","230","366833","0.0-2.0-2.75-0.75","94t","[""L""]","","","","","","null","key","null","null","16.955440677966827","912","513","1","0","0","1","1","","",""
"","psychophysics","231","369071","0.0-2.0-0.76","94t","[""L""]","","","","","","1533","key","z","z","16.671924812029925","912","513","1","1","0","0","1","true","",""
"","psychophysics","232","370078","0.0-2.0-1.76","94t","[""L""]","","","","","","null","key","null","null","16.671355932203152","912","513","1","1","0","0","1","","",""
"","psychophysics","233","371085","0.0-2.0-2.76-0.76","94t","[""L""]","","","","","","null","key","null","null","16.67161666666701","912","513","1","1","0","0","1","","",""
"","psychophysics","234","373463","0.0-2.0-0.77","94t","[""L""]","","","","","","1675","key","m","m","16.671517730496515","912","513","1","1","0","1","0","false","",""
"","psychophysics","235","374472","0.0-2.0-1.77","94t","[""L""]","","","","","","null","key","null","null","16.67208333333353","912","513","1","1","0","1","0","","",""
"","psychophysics","236","375481","0.0-2.0-3.77-0.77","94t","[""L""]","","","","","","null","key","null","null","16.671101694914782","912","513","1","1","0","1","0","","",""
"","psychophysics","237","378103","0.0-2.0-0.78","94t","[""L""]","","","","","","1918","key","z","z","16.672171974522033","912","513","1","0","1","0","1","true","",""
"","psychophysics","238","379112","0.0-2.0-1.78","94t","[""L""]","","","","","","null","key","null","null","16.669932203390044","912","513","1","0","1","0","1","","",""
"","psychophysics","239","380115","0.0-2.0-2.78-0.78","94t","[""L""]","","","","","","null","key","null","null","16.67254237288124","912","513","1","0","1","0","1","","",""
"","psychophysics","240","382407","0.0-2.0-0.79","94t","[""L""]","","","","","","1586","key","m","m","16.918674074074133","912","513","2","1","0","0","0","true","",""
"","psychophysics","241","383414","0.0-2.0-1.79","94t","[""L""]","","","","","","null","key","null","null","16.672508474576517","912","513","2","1","0","0","0","","",""
"","psychophysics","242","384424","0.0-2.0-2.79-0.79","94t","[""L""]","","","","","","null","key","null","null","16.671349999999318","912","513","2","1","0","0","0","","",""
"","psychophysics","243","386863","0.0-2.0-0.80","94t","[""L""]","","","","","","1735","key","m","m","16.672648275861967","912","513","2","0","1","0","1","true","",""
"","psychophysics","244","387872","0.0-2.0-1.80","94t","[""L""]","","","","","","null","key","null","null","16.672266666666836","912","513","2","0","1","0","1","","",""
"","psychophysics","245","388881","0.0-2.0-2.80-0.80","94t","[""L""]","","","","","","null","key","null","null","16.67249152542317","912","513","2","0","1","0","1","","",""
"","psychophysics","246","391415","0.0-2.0-0.81","94t","[""L""]","","","","","","1831","key","m","m","16.672026490066386","912","513","2","1","0","1","1","true","",""
"","psychophysics","247","392423","0.0-2.0-1.81","94t","[""L""]","","","","","","null","key","null","null","16.671899999999248","912","513","2","1","0","1","1","","",""
"","psychophysics","248","393431","0.0-2.0-2.81-0.81","94t","[""L""]","","","","","","null","key","null","null","16.669271186441065","912","513","2","1","0","1","1","","",""
"","psychophysics","249","396422","0.0-2.0-0.82","94t","[""L""]","","","","","","2290","key","z","z","16.67177528089888","912","513","2","0","0","1","0","false","",""
"","psychophysics","250","397426","0.0-2.0-1.82","94t","[""L""]","","","","","","null","key","null","null","16.67158333333306","912","513","2","0","0","1","0","","",""
"","psychophysics","251","398430","0.0-2.0-3.82-0.82","94t","[""L""]","","","","","","null","key","null","null","16.672203389830074","912","513","2","0","0","1","0","","",""
"","psychophysics","252","400134","0.0-2.0-0.83","94t","[""L""]","","","","","","1000","key","z","z","16.6720990099014","912","513","2","1","0","1","1","false","",""
"","psychophysics","253","401138","0.0-2.0-1.83","94t","[""L""]","","","","","","null","key","null","null","16.671745762712387","912","513","2","1","0","1","1","","",""
"","psychophysics","254","402144","0.0-2.0-3.83-0.83","94t","[""L""]","","","","","","null","key","null","null","16.673416666667134","912","513","2","1","0","1","1","","",""
"","psychophysics","255","404623","0.0-2.0-0.84","94t","[""L""]","","","","","","1775","key","m","m","16.66974829931959","912","513","2","1","1","0","1","true","",""
"","psychophysics","256","405631","0.0-2.0-1.84","94t","[""L""]","","","","","","null","key","null","null","16.672583333333023","912","513","2","1","1","0","1","","",""
"","psychophysics","257","406640","0.0-2.0-2.84-0.84","94t","[""L""]","","","","","","null","key","null","null","16.671610169491526","912","513","2","1","1","0","1","","",""
"","psychophysics","258","407944","0.0-2.0-0.85","94t","[""L""]","","","","","","600","key","m","m","16.673532467532763","912","513","2","0","1","1","1","true","",""
"","psychophysics","259","408953","0.0-2.0-1.85","94t","[""L""]","","","","","","null","key","null","null","16.671649999999985","912","513","2","0","1","1","1","","",""
"","psychophysics","260","409963","0.0-2.0-2.85-0.85","94t","[""L""]","","","","","","null","key","null","null","16.670433333332767","912","513","2","0","1","1","1","","",""
"","psychophysics","261","412374","0.0-2.0-0.86","94t","[""L""]","","","","","","1708","key","m","m","16.671951048950895","912","513","1","1","1","1","1","false","",""
"","psychophysics","262","413376","0.0-2.0-1.86","94t","[""L""]","","","","","","null","key","null","null","16.671186440678557","912","513","1","1","1","1","1","","",""
"","psychophysics","263","414379","0.0-2.0-3.86-0.86","94t","[""L""]","","","","","","null","key","null","null","16.671833333333293","912","513","1","1","1","1","1","","",""
"","psychophysics","264","415958","0.0-2.0-0.87","94t","[""L""]","","","","","","877","key","m","m","16.671408602150446","912","513","1","0","1","0","0","false","",""
"","psychophysics","265","416964","0.0-2.0-1.87","94t","[""L""]","","","","","","null","key","null","null","16.67370000000034","912","513","1","0","1","0","0","","",""
"","psychophysics","266","417973","0.0-2.0-3.87-0.87","94t","[""L""]","","","","","","null","key","null","null","16.675593220338747","912","513","1","0","1","0","0","","",""
"","psychophysics","267","419837","0.0-2.0-0.88","94t","[""L""]","","","","","","1161","key","z","z","16.671306306305908","912","513","2","0","1","1","1","false","",""
"","psychophysics","268","420840","0.0-2.0-1.88","94t","[""L""]","","","","","","null","key","null","null","16.67340677966052","912","513","2","0","1","1","1","","",""
"","psychophysics","269","421850","0.0-2.0-3.88-0.88","94t","[""L""]","","","","","","null","key","null","null","16.67021666666648","912","513","2","0","1","1","1","","",""
"","psychophysics","270","423663","0.0-2.0-0.89","94t","[""L""]","","","","","","1109","key","m","m","16.672850467289678","912","513","2","1","0","1","1","true","",""
"","psychophysics","271","424671","0.0-2.0-1.89","94t","[""L""]","","","","","","null","key","null","null","16.670516666667147","912","513","2","1","0","1","1","","",""
"","psychophysics","272","425674","0.0-2.0-2.89-0.89","94t","[""L""]","","","","","","null","key","null","null","16.67364406779653","912","513","2","1","0","1","1","","",""
"","psychophysics","273","427230","0.0-2.0-0.90","94t","[""L""]","","","","","","850","key","m","m","16.671956521739208","912","513","2","1","0","1","1","true","",""
"","psychophysics","274","428235","0.0-2.0-1.90","94t","[""L""]","","","","","","null","key","null","null","16.67223333333289","912","513","2","1","0","1","1","","",""
"","psychophysics","275","429241","0.0-2.0-2.90-0.90","94t","[""L""]","","","","","","null","key","null","null","16.67133898305079","912","513","2","1","0","1","1","","",""
"","psychophysics","276","432229","0.0-2.0-0.91","94t","[""L""]","","","","","","2287","key","m","m","16.671943820224882","912","513","2","0","0","0","1","true","",""
"","psychophysics","277","433232","0.0-2.0-1.91","94t","[""L""]","","","","","","null","key","null","null","16.673033898305622","912","513","2","0","0","0","1","","",""
"","psychophysics","278","434243","0.0-2.0-2.91-0.91","94t","[""L""]","","","","","","null","key","null","null","16.670816666666845","912","513","2","0","0","0","1","","",""
"","psychophysics","279","437629","0.0-2.0-0.92","94t","[""L""]","","","","","","2683","key","m","m","16.671648514851245","912","513","1","0","0","0","1","false","",""
"","psychophysics","280","438632","0.0-2.0-1.92","94t","[""L""]","","","","","","null","key","null","null","16.673084745762704","912","513","1","0","0","0","1","","",""
"","psychophysics","281","439642","0.0-2.0-3.92-0.92","94t","[""L""]","","","","","","null","key","null","null","16.672850000000714","912","513","1","0","0","0","1","","",""
"","psychophysics","282","442287","0.0-2.0-0.93","94t","[""L""]","","","","","","1940","key","z","z","16.672165605095348","912","513","2","1","1","1","1","false","",""
"","psychophysics","283","443294","0.0-2.0-1.93","94t","[""L""]","","","","","","null","key","null","null","16.67086666666631","912","513","2","1","1","1","1","","",""
"","psychophysics","284","444300","0.0-2.0-3.93-0.93","94t","[""L""]","","","","","","null","key","null","null","16.672271186440504","912","513","2","1","1","1","1","","",""
"","psychophysics","285","448238","0.0-2.0-0.94","94t","[""L""]","","","","","","3234","key","m","m","16.67159148936155","912","513","2","0","1","0","1","true","",""
"","psychophysics","286","449243","0.0-2.0-1.94","94t","[""L""]","","","","","","null","key","null","null","16.673466666666595","912","513","2","0","1","0","1","","",""
"","psychophysics","287","450254","0.0-2.0-2.94-0.94","94t","[""L""]","","","","","","null","key","null","null","16.67179661016947","912","513","2","0","1","0","1","","",""
"","psychophysics","288","452463","0.0-2.0-0.95","94t","[""L""]","","","","","","1505","key","z","z","16.671939393939365","912","513","2","0","1","1","0","false","",""
"","psychophysics","289","453470","0.0-2.0-1.95","94t","[""L""]","","","","","","null","key","null","null","16.672322033898574","912","513","2","0","1","1","0","","",""
"","psychophysics","290","454480","0.0-2.0-3.95-0.95","94t","[""L""]","","","","","","null","key","null","null","16.67273333333336","912","513","2","0","1","1","0","","",""
"","psychophysics","291","457126","0.0-2.0-0.96","94t","[""L""]","","","","","","1942","key","z","z","16.671500000000055","912","513","1","0","1","1","1","true","",""
"","psychophysics","292","458132","0.0-2.0-1.96","94t","[""L""]","","","","","","null","key","null","null","16.671762711864748","912","513","1","0","1","1","1","","",""
"","psychophysics","293","459137","0.0-2.0-2.96-0.96","94t","[""L""]","","","","","","null","key","null","null","16.673152542373135","912","513","1","0","1","1","1","","",""
"","psychophysics","294","462575","0.0-2.0-0.97","94t","[""L""]","","","","","","2734","key","m","m","16.672253658536754","912","513","1","0","1","0","1","false","",""
"","psychophysics","295","463584","0.0-2.0-1.97","94t","[""L""]","","","","","","null","key","null","null","16.6727166666659","912","513","1","0","1","0","1","","",""
"","psychophysics","296","464593","0.0-2.0-3.97-0.97","94t","[""L""]","","","","","","null","key","null","null","16.672999999999913","912","513","1","0","1","0","1","","",""
"","psychophysics","297","466518","0.0-2.0-0.98","94t","[""L""]","","","","","","1220","key","m","m","16.671765217391027","912","513","2","0","1","1","1","true","",""
"","psychophysics","298","467526","0.0-2.0-1.98","94t","[""L""]","","","","","","null","key","null","null","16.671711864406678","912","513","2","0","1","1","1","","",""
"","psychophysics","299","468536","0.0-2.0-2.98-0.98","94t","[""L""]","","","","","","null","key","null","null","16.67206666666607","912","513","2","0","1","1","1","","",""
"","psychophysics","300","471702","0.0-2.0-0.99","94t","[""L""]","","","","","","2463","key","m","m","16.67199470899462","912","513","2","0","0","0","1","true","",""
"","psychophysics","301","472709","0.0-2.0-1.99","94t","[""L""]","","","","","","null","key","null","null","16.671593220339165","912","513","2","0","0","0","1","","",""
"","psychophysics","302","473717","0.0-2.0-2.99-0.99","94t","[""L""]","","","","","","null","key","null","null","16.67233333333376","912","513","2","0","0","0","1","","",""
"","html-keyboard-response","303","483624","0.0-2.0-4.99-0.99","94t","[""L""]","","","","","","9910","","","g","","","","","","","","","","<p>You have finished block 1 of 5.<p>You correctly predicted 56% of the races.<p>On the next screen, you will be given a 30 second break. Press the <b>g</b> key to start your break.",""
"","html-keyboard-response","304","484642","0.0-2.0-4.99-1.99-0.99","94t","[""L""]","","","","","","null","","","null","","","","","","","","","","<p>The experiment will resume in 30 seconds. ",""
"","html-keyboard-response","305","485658","0.0-2.0-4.99-1.99-1.99","94t","[""L""]","","","","","","null","","","null","","","","","","","","","","<p>The experiment will resume in 29 seconds. ",""
"","html-keyboard-response","306","486675","0.0-2.0-4.99-1.99-2.99","94t","[""L""]","","","","","","null","","","null","","","","","","","","","","<p>The experiment will resume in 28 seconds. ",""
"","html-keyboard-response","307","487692","0.0-2.0-4.99-1.99-3.99","94t","[""L""]","","","","","","null","","","null","","","","","","","","","","<p>The experiment will resume in 27 seconds. ",""
"","html-keyboard-response","308","488698","0.0-2.0-4.99-1.99-4.99","94t","[""L""]","","","","","","null","","","null","","","","","","","","","","<p>The experiment will resume in 26 seconds. ",""
"","html-keyboard-response","309","489709","0.0-2.0-4.99-1.99-5.99","94t","[""L""]","","","","","","null","","","null","","","","","","","","","","<p>The experiment will resume in 25 seconds. ",""
"","html-keyboard-response","310","490714","0.0-2.0-4.99-1.99-6.99","94t","[""L""]","","","","","","null","","","null","","","","","","","","","","<p>The experiment will resume in 24 seconds. ",""
"","html-keyboard-response","311","491715","0.0-2.0-4.99-1.99-7.99","94t","[""L""]","","","","","","null","","","null","","","","","","","","","","<p>The experiment will resume in 23 seconds. ",""
"","html-keyboard-response","312","492722","0.0-2.0-4.99-1.99-8.99","94t","[""L""]","","","","","","null","","","null","","","","","","","","","","<p>The experiment will resume in 22 seconds. ",""
"","html-keyboard-response","313","493732","0.0-2.0-4.99-1.99-9.99","94t","[""L""]","","","","","","null","","","null","","","","","","","","","","<p>The experiment will resume in 21 seconds. ",""
"","html-keyboard-response","314","494744","0.0-2.0-4.99-1.99-10.99","94t","[""L""]","","","","","","null","","","null","","","","","","","","","","<p>The experiment will resume in 20 seconds. ",""
"","html-keyboard-response","315","495761","0.0-2.0-4.99-1.99-11.99","94t","[""L""]","","","","","","null","","","null","","","","","","","","","","<p>The experiment will resume in 19 seconds. ",""
"","html-keyboard-response","316","496763","0.0-2.0-4.99-1.99-12.99","94t","[""L""]","","","","","","null","","","null","","","","","","","","","","<p>The experiment will resume in 18 seconds. ",""
"","html-keyboard-response","317","497778","0.0-2.0-4.99-1.99-13.99","94t","[""L""]","","","","","","null","","","null","","","","","","","","","","<p>The experiment will resume in 17 seconds. ",""
"","html-keyboard-response","318","498783","0.0-2.0-4.99-1.99-14.99","94t","[""L""]","","","","","","null","","","null","","","","","","","","","","<p>The experiment will resume in 16 seconds. ",""
"","html-keyboard-response","319","499796","0.0-2.0-4.99-1.99-15.99","94t","[""L""]","","","","","","null","","","null","","","","","","","","","","<p>The experiment will resume in 15 seconds. ",""
"","html-keyboard-response","320","500813","0.0-2.0-4.99-1.99-16.99","94t","[""L""]","","","","","","null","","","null","","","","","","","","","","<p>The experiment will resume in 14 seconds. ",""
"","html-keyboard-response","321","501830","0.0-2.0-4.99-1.99-17.99","94t","[""L""]","","","","","","null","","","null","","","","","","","","","","<p>The experiment will resume in 13 seconds. ",""
"","html-keyboard-response","322","502846","0.0-2.0-4.99-1.99-18.99","94t","[""L""]","","","","","","null","","","null","","","","","","","","","","<p>The experiment will resume in 12 seconds. ",""
"","html-keyboard-response","323","503855","0.0-2.0-4.99-1.99-19.99","94t","[""L""]","","","","","","null","","","null","","","","","","","","","","<p>The experiment will resume in 11 seconds. ",""
"","html-keyboard-response","324","504864","0.0-2.0-4.99-1.99-20.99","94t","[""L""]","","","","","","null","","","null","","","","","","","","","","<p>The experiment will resume in 10 seconds. ",""
"","html-keyboard-response","325","505865","0.0-2.0-4.99-1.99-21.99","94t","[""L""]","","","","","","null","","","null","","","","","","","","","","<p>The experiment will resume in 9 seconds. ",""
"","html-keyboard-response","326","506883","0.0-2.0-4.99-1.99-22.99","94t","[""L""]","","","","","","null","","","null","","","","","","","","","","<p>The experiment will resume in 8 seconds. ",""
"","html-keyboard-response","327","507899","0.0-2.0-4.99-1.99-23.99","94t","[""L""]","","","","","","null","","","null","","","","","","","","","","<p>The experiment will resume in 7 seconds. ",""
"","html-keyboard-response","328","508901","0.0-2.0-4.99-1.99-24.99","94t","[""L""]","","","","","","null","","","null","","","","","","","","","","<p>The experiment will resume in 6 seconds. ",""
"","html-keyboard-response","329","509916","0.0-2.0-4.99-1.99-25.99","94t","[""L""]","","","","","","null","","","null","","","","","","","","","","<p>The experiment will resume in 5 seconds. ",""
"","html-keyboard-response","330","510932","0.0-2.0-4.99-1.99-26.99","94t","[""L""]","","","","","","null","","","null","","","","","","","","","","<p>The experiment will resume in 4 seconds. ",""
"","html-keyboard-response","331","511950","0.0-2.0-4.99-1.99-27.99","94t","[""L""]","","","","","","null","","","null","","","","","","","","","","<p>The experiment will resume in 3 seconds. ",""
"","html-keyboard-response","332","512967","0.0-2.0-4.99-1.99-28.99","94t","[""L""]","","","","","","null","","","null","","","","","","","","","","<p>The experiment will resume in 2 seconds. ",""
"","html-keyboard-response","333","513969","0.0-2.0-4.99-1.99-29.99","94t","[""L""]","","","","","","null","","","null","","","","","","","","","","<p>The experiment will resume in 1 seconds. ",""
"","psychophysics","334","521308","0.0-2.0-0.100","94t","[""L""]","","","","","","6636","key","z","z","16.67261818181829","912","513","1","0","0","0","1","true","",""
"","psychophysics","335","522316","0.0-2.0-1.100","94t","[""L""]","","","","","","null","key","null","null","16.67132203389843","912","513","1","0","0","0","1","","",""
"","psychophysics","336","523326","0.0-2.0-2.100-0.100","94t","[""L""]","","","","","","null","key","null","null","16.6728666666672","912","513","1","0","0","0","1","","",""
"","psychophysics","337","525947","0.0-2.0-0.101","94t","[""L""]","","","","","","1918","key","m","m","16.67174999999966","912","513","1","1","0","1","0","false","",""
"","psychophysics","338","526955","0.0-2.0-1.101","94t","[""L""]","","","","","","null","key","null","null","16.672349999998307","912","513","1","1","0","1","0","","",""
"","psychophysics","339","527961","0.0-2.0-3.101-0.101","94t","[""L""]","","","","","","null","key","null","null","16.672338983051922","912","513","1","1","0","1","0","","",""
"","psychophysics","340","529868","0.0-2.0-0.102","94t","[""L""]","","","","","","1204","key","m","m","16.671814159292364","912","513","2","1","0","1","1","true","",""
"","psychophysics","341","530876","0.0-2.0-1.102","94t","[""L""]","","","","","","null","key","null","null","16.67335000000118","912","513","2","1","0","1","1","","",""
"","psychophysics","342","531886","0.0-2.0-2.102-0.102","94t","[""L""]","","","","","","null","key","null","null","16.67213559322162","912","513","2","1","0","1","1","","",""
"","psychophysics","343","534196","0.0-2.0-0.103","94t","[""L""]","","","","","","1607","key","z","z","16.672159420289233","912","513","1","0","0","1","1","true","",""
"","psychophysics","344","535204","0.0-2.0-1.103","94t","[""L""]","","","","","","null","key","null","null","16.671542372880108","912","513","1","0","0","1","1","","",""
"","psychophysics","345","536215","0.0-2.0-2.103-0.103","94t","[""L""]","","","","","","null","key","null","null","16.67084999999885","912","513","1","0","0","1","1","","",""
"","psychophysics","346","538331","0.0-2.0-0.104","94t","[""L""]","","","","","","1409","key","m","m","16.67228571428559","912","513","2","1","1","1","1","true","",""
"","psychophysics","347","539335","0.0-2.0-1.104","94t","[""L""]","","","","","","null","key","null","null","16.67208474576355","912","513","2","1","1","1","1","","",""
"","psychophysics","348","540356","0.0-2.0-2.104-0.104","94t","[""L""]","","","","","","null","key","null","null","16.673500000000544","912","513","2","1","1","1","1","","",""
"","psychophysics","349","542938","0.0-2.0-0.105","94t","[""L""]","","","","","","1877","key","z","z","16.671116883116593","912","513","2","0","1","1","0","false","",""
"","psychophysics","350","543952","0.0-2.0-1.105","94t","[""L""]","","","","","","null","key","null","null","16.67471186440809","912","513","2","0","1","1","0","","",""
"","psychophysics","351","544964","0.0-2.0-3.105-0.105","94t","[""L""]","","","","","","null","key","null","null","16.67011666666755","912","513","2","0","1","1","0","","",""
"","psychophysics","352","547221","0.0-2.0-0.106","94t","[""L""]","","","","","","1553","key","m","m","16.67148888888855","912","513","1","0","0","0","0","false","",""
"","psychophysics","353","548236","0.0-2.0-1.106","94t","[""L""]","","","","","","null","key","null","null","16.673627118643182","912","513","1","0","0","0","0","","",""
"","psychophysics","354","549253","0.0-2.0-3.106-0.106","94t","[""L""]","","","","","","null","key","null","null","16.668733333334483","912","513","1","0","0","0","0","","",""
"","psychophysics","355","550886","0.0-2.0-0.107","94t","[""L""]","","","","","","927","key","m","m","16.672969072165458","912","513","1","0","0","1","1","false","",""
"","psychophysics","356","551902","0.0-2.0-1.107","94t","[""L""]","","","","","","null","key","null","null","16.672683333331953","912","513","1","0","0","1","1","","",""
"","psychophysics","357","552918","0.0-2.0-3.107-0.107","94t","[""L""]","","","","","","null","key","null","null","16.67241666666814","912","513","1","0","0","1","1","","",""
"","psychophysics","358","555038","0.0-2.0-0.108","94t","[""L""]","","","","","","1417","key","m","m","16.6716349206353","912","513","2","1","1","0","0","true","",""
"","psychophysics","359","556055","0.0-2.0-1.108","94t","[""L""]","","","","","","null","key","null","null","16.671399999999753","912","513","2","1","1","0","0","","",""
"","psychophysics","360","557072","0.0-2.0-2.108-0.108","94t","[""L""]","","","","","","null","key","null","null","16.671716666665937","912","513","2","1","1","0","0","","",""
"","psychophysics","361","559263","0.0-2.0-0.109","94t","[""L""]","","","","","","1479","key","m","m","16.67261068702263","912","513","2","0","1","0","1","true","",""
"","psychophysics","362","560273","0.0-2.0-1.109","94t","[""L""]","","","","","","null","key","null","null","16.671999999998786","912","513","2","0","1","0","1","","",""
"","psychophysics","363","561284","0.0-2.0-2.109-0.109","94t","[""L""]","","","","","","null","key","null","null","16.67198333333363","912","513","2","0","1","0","1","","",""
"","psychophysics","364","563406","0.0-2.0-0.110","94t","[""L""]","","","","","","1419","key","m","m","16.67173809523875","912","513","2","0","0","0","1","true","",""
"","psychophysics","365","564421","0.0-2.0-1.110","94t","[""L""]","","","","","","null","key","null","null","16.67013333333307","912","513","2","0","0","0","1","","",""
"","psychophysics","366","565426","0.0-2.0-2.110-0.110","94t","[""L""]","","","","","","null","key","null","null","16.672566666667503","912","513","2","0","0","0","1","","",""
"","psychophysics","367","568606","0.0-2.0-0.111","94t","[""L""]","","","","","","2468","key","m","m","16.672174603174437","912","513","2","1","0","1","0","true","",""
"","psychophysics","368","569626","0.0-2.0-1.111","94t","[""L""]","","","","","","null","key","null","null","16.67141666666721","912","513","2","1","0","1","0","","",""
"","psychophysics","369","570632","0.0-2.0-2.111-0.111","94t","[""L""]","","","","","","null","key","null","null","16.671799999999347","912","513","2","1","0","1","0","","",""
"","psychophysics","370","573207","0.0-2.0-0.112","94t","[""L""]","","","","","","1866","key","m","m","16.672215686274047","912","513","1","1","1","1","0","false","",""
"","psychophysics","371","574227","0.0-2.0-1.112","94t","[""L""]","","","","","","null","key","null","null","16.672216666668344","912","513","1","1","1","1","0","","",""
"","psychophysics","372","575245","0.0-2.0-3.112-0.112","94t","[""L""]","","","","","","null","key","null","null","16.67294999999964","912","513","1","1","1","1","0","","",""
"","psychophysics","373","578470","0.0-2.0-0.113","94t","[""L""]","","","","","","2509","key","m","m","16.6718756476685","912","513","1","0","1","0","1","false","",""
"","psychophysics","374","579479","0.0-2.0-1.113","94t","[""L""]","","","","","","null","key","null","null","16.670864406779756","912","513","1","0","1","0","1","","",""
"","psychophysics","375","580496","0.0-2.0-3.113-0.113","94t","[""L""]","","","","","","null","key","null","null","16.672266666666836","912","513","1","0","1","0","1","","",""
"","psychophysics","376","582829","0.0-2.0-0.114","94t","[""L""]","","","","","","1617","key","m","m","16.671647482013945","912","513","2","0","1","1","1","true","",""
"","psychophysics","377","583840","0.0-2.0-1.114","94t","[""L""]","","","","","","null","key","null","null","16.67445000000104","912","513","2","0","1","1","1","","",""
"","psychophysics","378","584860","0.0-2.0-2.114-0.114","94t","[""L""]","","","","","","null","key","null","null","16.671749999998912","912","513","2","0","1","1","1","","",""
"","psychophysics","379","587047","0.0-2.0-0.115","94t","[""L""]","","","","","","1483","key","m","m","16.672823076923557","912","513","1","1","1","1","1","false","",""
"","psychophysics","380","588055","0.0-2.0-1.115","94t","[""L""]","","","","","","null","key","null","null","16.672616666666","912","513","1","1","1","1","1","","",""
"","psychophysics","381","589065","0.0-2.0-3.115-0.115","94t","[""L""]","","","","","","null","key","null","null","16.671355932203152","912","513","1","1","1","1","1","","",""
"","psychophysics","382","590975","0.0-2.0-0.116","94t","[""L""]","","","","","","1207","key","m","m","16.67281578947369","912","513","2","1","1","1","1","true","",""
"","psychophysics","383","591983","0.0-2.0-1.116","94t","[""L""]","","","","","","null","key","null","null","16.67050847457722","912","513","2","1","1","1","1","","",""
"","psychophysics","384","592995","0.0-2.0-2.116-0.116","94t","[""L""]","","","","","","null","key","null","null","16.673399999999674","912","513","2","1","1","1","1","","",""
"","psychophysics","385","595165","0.0-2.0-0.117","94t","[""L""]","","","","","","1465","key","z","z","16.672031007752242","912","513","2","0","1","1","1","false","",""
"","psychophysics","386","596169","0.0-2.0-1.117","94t","[""L""]","","","","","","null","key","null","null","16.6724166666662","912","513","2","0","1","1","1","","",""
"","psychophysics","387","597181","0.0-2.0-3.117-0.117","94t","[""L""]","","","","","","null","key","null","null","16.671254237288988","912","513","2","0","1","1","1","","",""
"","psychophysics","388","598798","0.0-2.0-0.118","94t","[""L""]","","","","","","913","key","m","m","16.672687499999785","912","513","2","0","0","1","1","true","",""
"","psychophysics","389","599813","0.0-2.0-1.118","94t","[""L""]","","","","","","null","key","null","null","16.688433333334977","912","513","2","0","0","1","1","","",""
"","psychophysics","390","600819","0.0-2.0-2.118-0.118","94t","[""L""]","","","","","","null","key","null","null","16.67316949152648","912","513","2","0","0","1","1","","",""
"","psychophysics","391","602472","0.0-2.0-0.119","94t","[""L""]","","","","","","945","key","m","m","16.671444444444425","912","513","1","0","1","0","0","false","",""
"","psychophysics","392","603484","0.0-2.0-1.119","94t","[""L""]","","","","","","null","key","null","null","16.672372881356644","912","513","1","0","1","0","0","","",""
"","psychophysics","393","604497","0.0-2.0-3.119-0.119","94t","[""L""]","","","","","","null","key","null","null","16.67143333333273","912","513","1","0","1","0","0","","",""
"","psychophysics","394","606509","0.0-2.0-0.120","94t","[""L""]","","","","","","1308","key","z","z","16.671624999999768","912","513","2","0","1","0","1","false","",""
"","psychophysics","395","607512","0.0-2.0-1.120","94t","[""L""]","","","","","","null","key","null","null","16.67220338983106","912","513","2","0","1","0","1","","",""
"","psychophysics","396","608521","0.0-2.0-3.120-0.120","94t","[""L""]","","","","","","null","key","null","null","16.67201694915213","912","513","2","0","1","0","1","","",""
"","psychophysics","397","610029","0.0-2.0-0.121","94t","[""L""]","","","","","","793","key","m","m","16.670844444444974","912","513","2","1","1","1","1","true","",""
"","psychophysics","398","611038","0.0-2.0-1.121","94t","[""L""]","","","","","","null","key","null","null","16.673271186440648","912","513","2","1","1","1","1","","",""
"","psychophysics","399","612049","0.0-2.0-2.121-0.121","94t","[""L""]","","","","","","null","key","null","null","16.67178333333189","912","513","2","1","1","1","1","","",""
"","psychophysics","400","616446","0.0-2.0-0.122","94t","[""L""]","","","","","","3690","key","m","m","16.73575572519099","912","513","1","0","0","0","1","false","",""
"","psychophysics","401","617457","0.0-2.0-1.122","94t","[""L""]","","","","","","null","key","null","null","16.67171186440569","912","513","1","0","0","0","1","","",""
"","psychophysics","402","618474","0.0-2.0-3.122-0.122","94t","[""L""]","","","","","","null","key","null","null","16.672016666666604","912","513","1","0","0","0","1","","",""
"","psychophysics","403","620191","0.0-2.0-0.123","94t","[""L""]","","","","","","1009","key","m","m","16.672441176470944","912","513","2","1","0","1","1","true","",""
"","psychophysics","404","621199","0.0-2.0-1.123","94t","[""L""]","","","","","","null","key","null","null","16.67324999999837","912","513","2","1","0","1","1","","",""
"","psychophysics","405","622208","0.0-2.0-2.123-0.123","94t","[""L""]","","","","","","null","key","null","null","16.672440677966087","912","513","2","1","0","1","1","","",""
"","psychophysics","406","623549","0.0-2.0-0.124","94t","[""L""]","","","","","","628","key","z","z","16.673012500000187","912","513","2","0","1","0","0","false","",""
"","psychophysics","407","624559","0.0-2.0-1.124","94t","[""L""]","","","","","","null","key","null","null","16.6697457627121","912","513","2","0","1","0","0","","",""
"","psychophysics","408","625561","0.0-2.0-3.124-0.124","94t","[""L""]","","","","","","null","key","null","null","16.67306666666797","912","513","2","0","1","0","0","","",""
"","psychophysics","409","627261","0.0-2.0-0.125","94t","[""L""]","","","","","","985","key","m","m","16.6704554455447","912","513","1","0","0","1","1","false","",""
"","psychophysics","410","628266","0.0-2.0-1.125","94t","[""L""]","","","","","","null","key","null","null","16.67322033898455","912","513","1","0","0","1","1","","",""
"","psychophysics","411","629277","0.0-2.0-3.125-0.125","94t","[""L""]","","","","","","null","key","null","null","16.672355932203295","912","513","1","0","0","1","1","","",""
"","psychophysics","412","631102","0.0-2.0-0.126","94t","[""L""]","","","","","","1110","key","m","m","16.67180733944913","912","513","2","0","0","1","0","true","",""
"","psychophysics","413","632112","0.0-2.0-1.126","94t","[""L""]","","","","","","null","key","null","null","16.67177966101711","912","513","2","0","0","1","0","","",""
"","psychophysics","414","633120","0.0-2.0-2.126-0.126","94t","[""L""]","","","","","","null","key","null","null","16.671266666665908","912","513","2","0","0","1","0","","",""
"","psychophysics","415","634653","0.0-2.0-0.127","94t","[""L""]","","","","","","824","key","m","m","16.671505494505055","912","513","1","0","0","1","0","false","",""
"","psychophysics","416","635662","0.0-2.0-1.127","94t","[""L""]","","","","","","null","key","null","null","16.67330508474734","912","513","1","0","0","1","0","","",""
"","psychophysics","417","636677","0.0-2.0-3.127-0.127","94t","[""L""]","","","","","","null","key","null","null","16.67068333333397","912","513","1","0","0","1","0","","",""
"","psychophysics","418","639030","0.0-2.0-0.128","94t","[""L""]","","","","","","1650","key","m","m","16.673064285713814","912","513","2","1","0","1","0","true","",""
"","psychophysics","419","640044","0.0-2.0-1.128","94t","[""L""]","","","","","","null","key","null","null","16.672633333333458","912","513","2","1","0","1","0","","",""
"","psychophysics","420","641062","0.0-2.0-2.128-0.128","94t","[""L""]","","","","","","null","key","null","null","16.672466666666637","912","513","2","1","0","1","0","","",""
"","psychophysics","421","643558","0.0-2.0-0.129","94t","[""L""]","","","","","","1791","key","m","m","16.67191275167779","912","513","1","1","1","0","1","false","",""
"","psychophysics","422","644565","0.0-2.0-1.129","94t","[""L""]","","","","","","null","key","null","null","16.672254237287156","912","513","1","1","1","0","1","","",""
"","psychophysics","423","645579","0.0-2.0-3.129-0.129","94t","[""L""]","","","","","","null","key","null","null","16.672100000000015","912","513","1","1","1","0","1","","",""
"","psychophysics","424","646965","0.0-2.0-0.130","94t","[""L""]","","","","","","683","key","m","m","16.671414634146124","912","513","2","1","1","1","1","true","",""
"","psychophysics","425","647970","0.0-2.0-1.130","94t","[""L""]","","","","","","null","key","null","null","16.674200000000805","912","513","2","1","1","1","1","","",""
"","psychophysics","426","648979","0.0-2.0-2.130-0.130","94t","[""L""]","","","","","","null","key","null","null","16.671796610170453","912","513","2","1","1","1","1","","",""
"","psychophysics","427","650388","0.0-2.0-0.131","94t","[""L""]","","","","","","705","key","z","z","16.6695238095237","912","513","1","0","1","1","1","true","",""
"","psychophysics","428","651392","0.0-2.0-1.131","94t","[""L""]","","","","","","null","key","null","null","16.673237288135926","912","513","1","0","1","1","1","","",""
"","psychophysics","429","652401","0.0-2.0-2.131-0.131","94t","[""L""]","","","","","","null","key","null","null","16.6713728813565","912","513","1","0","1","1","1","","",""
"","psychophysics","430","654270","0.0-2.0-0.132","94t","[""L""]","","","","","","1160","key","m","m","16.671783783784566","912","513","1","0","1","0","1","false","",""
"","psychophysics","431","655281","0.0-2.0-1.132","94t","[""L""]","","","","","","null","key","null","null","16.670633333333534","912","513","1","0","1","0","1","","",""
"","psychophysics","432","656288","0.0-2.0-3.132-0.132","94t","[""L""]","","","","","","null","key","null","null","16.660450000001582","912","513","1","0","1","0","1","","",""
"","psychophysics","433","659093","0.0-2.0-0.133","94t","[""L""]","","","","","","2091","key","m","m","16.67183832335286","912","513","1","0","0","1","0","false","",""
"","psychophysics","434","660103","0.0-2.0-1.133","94t","[""L""]","","","","","","null","key","null","null","16.66988135593296","912","513","1","0","0","1","0","","",""
"","psychophysics","435","661110","0.0-2.0-3.133-0.133","94t","[""L""]","","","","","","null","key","null","null","16.67416666666589","912","513","1","0","0","1","0","","",""
"","psychophysics","436","662918","0.0-2.0-0.134","94t","[""L""]","","","","","","1103","key","m","m","16.67161682243002","912","513","2","0","0","1","1","true","",""
"","psychophysics","437","663938","0.0-2.0-1.134","94t","[""L""]","","","","","","null","key","null","null","16.672749999999844","912","513","2","0","0","1","1","","",""
"","psychophysics","438","664948","0.0-2.0-2.134-0.134","94t","[""L""]","","","","","","null","key","null","null","16.671000000000156","912","513","2","0","0","1","1","","",""
"","psychophysics","439","666592","0.0-2.0-0.135","94t","[""L""]","","","","","","940","key","m","m","16.67202040816334","912","513","1","1","0","0","1","false","",""
"","psychophysics","440","667599","0.0-2.0-1.135","94t","[""L""]","","","","","","null","key","null","null","16.672033898303507","912","513","1","1","0","0","1","","",""
"","psychophysics","441","668606","0.0-2.0-3.135-0.135","94t","[""L""]","","","","","","null","key","null","null","16.670559322033313","912","513","1","1","0","0","1","","",""
"","psychophysics","442","670560","0.0-2.0-0.136","94t","[""L""]","","","","","","1250","key","m","m","16.67164102564148","912","513","2","0","1","0","1","true","",""
"","psychophysics","443","671567","0.0-2.0-1.136","94t","[""L""]","","","","","","null","key","null","null","16.67272881355918","912","513","2","0","1","0","1","","",""
"","psychophysics","444","672576","0.0-2.0-2.136-0.136","94t","[""L""]","","","","","","null","key","null","null","16.672366666667706","912","513","2","0","1","0","1","","",""
"","psychophysics","445","675830","0.0-2.0-0.137","94t","[""L""]","","","","","","2550","key","m","m","16.672463917525693","912","513","1","0","0","0","1","false","",""
"","psychophysics","446","676837","0.0-2.0-1.137","94t","[""L""]","","","","","","null","key","null","null","16.67149152542204","912","513","1","0","0","0","1","","",""
"","psychophysics","447","677845","0.0-2.0-3.137-0.137","94t","[""L""]","","","","","","null","key","null","null","16.672550000000047","912","513","1","0","0","0","1","","",""
"","psychophysics","448","679981","0.0-2.0-0.138","94t","[""L""]","","","","","","1432","key","z","z","16.670818897637936","912","513","2","1","0","1","1","false","",""
"","psychophysics","449","680983","0.0-2.0-1.138","94t","[""L""]","","","","","","null","key","null","null","16.673847457626835","912","513","2","1","0","1","1","","",""
"","psychophysics","450","681992","0.0-2.0-3.138-0.138","94t","[""L""]","","","","","","null","key","null","null","16.671457627119292","912","513","2","1","0","1","1","","",""
"","psychophysics","451","683665","0.0-2.0-0.139","94t","[""L""]","","","","","","969","key","m","m","16.67197999999975","912","513","1","0","0","0","1","false","",""
"","psychophysics","452","684671","0.0-2.0-1.139","94t","[""L""]","","","","","","null","key","null","null","16.6725593220336","912","513","1","0","0","0","1","","",""
"","psychophysics","453","685680","0.0-2.0-3.139-0.139","94t","[""L""]","","","","","","null","key","null","null","16.67271666666493","912","513","1","0","0","0","1","","",""
"","psychophysics","454","687334","0.0-2.0-0.140","94t","[""L""]","","","","","","950","key","m","m","16.67175510204136","912","513","1","1","1","0","0","false","",""
"","psychophysics","455","688341","0.0-2.0-1.140","94t","[""L""]","","","","","","null","key","null","null","16.671966101696036","912","513","1","1","1","0","0","","",""
"","psychophysics","456","689350","0.0-2.0-3.140-0.140","94t","[""L""]","","","","","","null","key","null","null","16.6728166666658","912","513","1","1","1","0","0","","",""
"","psychophysics","457","691254","0.0-2.0-0.141","94t","[""L""]","","","","","","1200","key","m","m","16.671557522123365","912","513","1","1","1","0","0","false","",""
"","psychophysics","458","692261","0.0-2.0-1.141","94t","[""L""]","","","","","","null","key","null","null","16.671423728812595","912","513","1","1","1","0","0","","",""
"","psychophysics","459","693270","0.0-2.0-3.141-0.141","94t","[""L""]","","","","","","null","key","null","null","16.67243333333366","912","513","1","1","1","0","0","","",""
"","psychophysics","460","694710","0.0-2.0-0.142","94t","[""L""]","","","","","","736","key","m","m","16.67177647058852","912","513","1","0","1","0","1","false","",""
"","psychophysics","461","695717","0.0-2.0-1.142","94t","[""L""]","","","","","","null","key","null","null","16.67214999999851","912","513","1","0","1","0","1","","",""
"","psychophysics","462","696726","0.0-2.0-3.142-0.142","94t","[""L""]","","","","","","null","key","null","null","16.67222033898441","912","513","1","0","1","0","1","","",""
"","psychophysics","463","697752","0.0-2.0-0.143","94t","[""L""]","","","","","","322","key","z","z","16.672786885246513","912","513","2","0","0","0","1","false","",""
"","psychophysics","464","698759","0.0-2.0-1.143","94t","[""L""]","","","","","","null","key","null","null","16.96032758620728","912","513","2","0","0","0","1","","",""
"","psychophysics","465","699769","0.0-2.0-3.143-0.143","94t","[""L""]","","","","","","null","key","null","null","16.669866666665378","912","513","2","0","0","0","1","","",""
"","psychophysics","466","700822","0.0-2.0-0.144","94t","[""L""]","","","","","","350","key","m","m","16.674000000000948","912","513","2","1","1","1","1","true","",""
"","psychophysics","467","701829","0.0-2.0-1.144","94t","[""L""]","","","","","","null","key","null","null","16.67172881356101","912","513","2","1","1","1","1","","",""
"","psychophysics","468","702840","0.0-2.0-2.144-0.144","94t","[""L""]","","","","","","null","key","null","null","16.67280000000028","912","513","2","1","1","1","1","","",""
"","psychophysics","469","704110","0.0-2.0-0.145","94t","[""L""]","","","","","","566","key","m","m","16.671026666667313","912","513","2","1","0","1","1","true","",""
"","psychophysics","470","705116","0.0-2.0-1.145","94t","[""L""]","","","","","","null","key","null","null","16.676389830508587","912","513","2","1","0","1","1","","",""
"","psychophysics","471","706124","0.0-2.0-2.145-0.145","94t","[""L""]","","","","","","null","key","null","null","16.673016666665596","912","513","2","1","0","1","1","","",""
"","psychophysics","472","707425","0.0-2.0-0.146","94t","[""L""]","","","","","","597","key","m","m","16.67283116883217","912","513","2","0","0","1","0","true","",""
"","psychophysics","473","708432","0.0-2.0-1.146","94t","[""L""]","","","","","","null","key","null","null","16.671694915254317","912","513","2","0","0","1","0","","",""
"","psychophysics","474","709443","0.0-2.0-2.146-0.146","94t","[""L""]","","","","","","null","key","null","null","16.67280000000028","912","513","2","0","0","1","0","","",""
"","psychophysics","475","710478","0.0-2.0-0.147","94t","[""L""]","","","","","","331","key","z","z","16.68093442622969","912","513","1","1","0","1","1","true","",""
"","psychophysics","476","711485","0.0-2.0-1.147","94t","[""L""]","","","","","","null","key","null","null","16.66389830508348","912","513","1","1","0","1","1","","",""
"","psychophysics","477","712495","0.0-2.0-2.147-0.147","94t","[""L""]","","","","","","null","key","null","null","16.6728166666658","912","513","1","1","0","1","1","","",""
"","psychophysics","478","713590","0.0-2.0-0.148","94t","[""L""]","","","","","","392","key","m","m","16.672584615384515","912","513","1","0","1","1","1","false","",""
"","psychophysics","479","714597","0.0-2.0-1.148","94t","[""L""]","","","","","","null","key","null","null","16.67128813559371","912","513","1","0","1","1","1","","",""
"","psychophysics","480","715606","0.0-2.0-3.148-0.148","94t","[""L""]","","","","","","null","key","null","null","16.67215000000045","912","513","1","0","1","1","1","","",""
"","psychophysics","481","716991","0.0-2.0-0.149","94t","[""L""]","","","","","","681","key","m","m","16.67215853658499","912","513","1","1","0","1","0","false","",""
"","psychophysics","482","717998","0.0-2.0-1.149","94t","[""L""]","","","","","","null","key","null","null","16.67177966101711","912","513","1","1","0","1","0","","",""
"","psychophysics","483","719008","0.0-2.0-3.149-0.149","94t","[""L""]","","","","","","null","key","null","null","16.672100000000015","912","513","1","1","0","1","0","","",""
"","psychophysics","484","720061","0.0-2.0-0.150","94t","[""L""]","","","","","","350","key","z","z","16.671903225805444","912","513","2","0","0","1","1","false","",""
"","psychophysics","485","721068","0.0-2.0-1.150","94t","[""L""]","","","","","","null","key","null","null","16.67181355932183","912","513","2","0","0","1","1","","",""
"","psychophysics","486","722077","0.0-2.0-3.150-0.150","94t","[""L""]","","","","","","null","key","null","null","16.672833333333255","912","513","2","0","0","1","1","","",""
"","psychophysics","487","722990","0.0-2.0-0.151","94t","[""L""]","","","","","","209","key","m","m","16.67181132075526","912","513","2","0","1","1","1","true","",""
"","psychophysics","488","723998","0.0-2.0-1.151","94t","[""L""]","","","","","","null","key","null","null","16.672200000000885","912","513","2","0","1","1","1","","",""
"","psychophysics","489","725007","0.0-2.0-2.151-0.151","94t","[""L""]","","","","","","null","key","null","null","16.671915254237966","912","513","2","0","1","1","1","","",""
"","psychophysics","490","726174","0.0-2.0-0.152","94t","[""L""]","","","","","","463","key","m","m","16.672826086957198","912","513","1","1","1","1","0","false","",""
"","psychophysics","491","727181","0.0-2.0-1.152","94t","[""L""]","","","","","","null","key","null","null","16.670899999999286","912","513","1","1","1","1","0","","",""
"","psychophysics","492","728186","0.0-2.0-3.152-0.152","94t","[""L""]","","","","","","null","key","null","null","16.672254237287156","912","513","1","1","1","1","0","","",""
"","psychophysics","493","729278","0.0-2.0-0.153","94t","[""L""]","","","","","","388","key","z","z","16.67263076922928","912","513","2","1","1","0","1","false","",""
"","psychophysics","494","730285","0.0-2.0-1.153","94t","[""L""]","","","","","","null","key","null","null","16.6709322033892","912","513","2","1","1","0","1","","",""
"","psychophysics","495","731294","0.0-2.0-3.153-0.153","94t","[""L""]","","","","","","null","key","null","null","16.67158333333403","912","513","2","1","1","0","1","","",""
"","psychophysics","496","732781","0.0-2.0-0.154","94t","[""L""]","","","","","","785","key","z","z","16.67197727272684","912","513","1","1","0","1","1","true","",""
"","psychophysics","497","733788","0.0-2.0-1.154","94t","[""L""]","","","","","","null","key","null","null","16.671169491524225","912","513","1","1","0","1","1","","",""
"","psychophysics","498","734794","0.0-2.0-2.154-0.154","94t","[""L""]","","","","","","null","key","null","null","16.67284745762669","912","513","1","1","0","1","1","","",""
"","psychophysics","499","737438","0.0-2.0-0.155","94t","[""L""]","","","","","","1942","key","m","m","16.672284810126705","912","513","1","1","0","1","0","false","",""
"","psychophysics","500","738445","0.0-2.0-1.155","94t","[""L""]","","","","","","null","key","null","null","16.67272881355918","912","513","1","1","0","1","0","","",""
"","psychophysics","501","739454","0.0-2.0-3.155-0.155","94t","[""L""]","","","","","","null","key","null","null","16.671533333333596","912","513","1","1","0","1","0","","",""
"","psychophysics","502","740816","0.0-2.0-0.156","94t","[""L""]","","","","","","659","key","m","m","16.67175308641989","912","513","2","0","1","1","1","true","",""
"","psychophysics","503","741823","0.0-2.0-1.156","94t","[""L""]","","","","","","null","key","null","null","16.67179661016848","912","513","2","0","1","1","1","","",""
"","psychophysics","504","742833","0.0-2.0-2.156-0.156","94t","[""L""]","","","","","","null","key","null","null","16.673033333333056","912","513","2","0","1","1","1","","",""
"","psychophysics","505","744383","0.0-2.0-0.157","94t","[""L""]","","","","","","846","key","m","m","16.671717391305087","912","513","2","0","1","0","1","true","",""
"","psychophysics","506","745391","0.0-2.0-1.157","94t","[""L""]","","","","","","null","key","null","null","16.67103389830534","912","513","2","0","1","0","1","","",""
"","psychophysics","507","746396","0.0-2.0-2.157-0.157","94t","[""L""]","","","","","","null","key","null","null","16.671661016949596","912","513","2","0","1","0","1","","",""
"","psychophysics","508","748157","0.0-2.0-0.158","94t","[""L""]","","","","","","1058","key","z","z","16.67146666666626","912","513","2","1","0","0","1","false","",""
"","psychophysics","509","749159","0.0-2.0-1.158","94t","[""L""]","","","","","","null","key","null","null","16.67422033898272","912","513","2","1","0","0","1","","",""
"","psychophysics","510","750169","0.0-2.0-3.158-0.158","94t","[""L""]","","","","","","null","key","null","null","16.67269999999941","912","513","2","1","0","0","1","","",""
"","psychophysics","511","751358","0.0-2.0-0.159","94t","[""L""]","","","","","","486","key","m","m","16.67171428571455","912","513","1","1","0","0","1","false","",""
"","psychophysics","512","752366","0.0-2.0-1.159","94t","[""L""]","","","","","","null","key","null","null","16.672084745761577","912","513","1","1","0","0","1","","",""
"","psychophysics","513","753374","0.0-2.0-3.159-0.159","94t","[""L""]","","","","","","null","key","null","null","16.671866666667242","912","513","1","1","0","0","1","","",""
"","psychophysics","514","754678","0.0-2.0-0.160","94t","[""L""]","","","","","","600","key","m","m","16.67206493506432","912","513","2","0","1","1","0","true","",""
"","psychophysics","515","755685","0.0-2.0-1.160","94t","[""L""]","","","","","","null","key","null","null","16.672466666666637","912","513","2","0","1","1","0","","",""
"","psychophysics","516","756694","0.0-2.0-2.160-0.160","94t","[""L""]","","","","","","null","key","null","null","16.672525423728878","912","513","2","0","1","1","0","","",""
"","psychophysics","517","758494","0.0-2.0-0.161","94t","[""L""]","","","","","","1096","key","z","z","16.67246728971988","912","513","2","1","1","1","1","false","",""
"","psychophysics","518","759503","0.0-2.0-1.161","94t","[""L""]","","","","","","null","key","null","null","16.672216666666404","912","513","2","1","1","1","1","","",""
"","psychophysics","519","760512","0.0-2.0-3.161-0.161","94t","[""L""]","","","","","","null","key","null","null","16.67093220339117","912","513","2","1","1","1","1","","",""
"","psychophysics","520","762237","0.0-2.0-0.162","94t","[""L""]","","","","","","1022","key","m","m","16.671805825242682","912","513","1","0","1","1","0","false","",""
"","psychophysics","521","763243","0.0-2.0-1.162","94t","[""L""]","","","","","","null","key","null","null","16.67198305084741","912","513","1","0","1","1","0","","",""
"","psychophysics","522","764252","0.0-2.0-3.162-0.162","94t","[""L""]","","","","","","null","key","null","null","16.671355932203152","912","513","1","0","1","1","0","","",""
"","psychophysics","523","766126","0.0-2.0-0.163","94t","[""L""]","","","","","","1170","key","m","m","16.672571428571246","912","513","2","1","0","1","0","true","",""
"","psychophysics","524","767132","0.0-2.0-1.163","94t","[""L""]","","","","","","null","key","null","null","16.67013559321936","912","513","2","1","0","1","0","","",""
"","psychophysics","525","768142","0.0-2.0-2.163-0.163","94t","[""L""]","","","","","","null","key","null","null","16.673000000000076","912","513","2","1","0","1","0","","",""
"","psychophysics","526","770005","0.0-2.0-0.164","94t","[""L""]","","","","","","1160","key","m","m","16.671135135135522","912","513","1","1","0","0","1","false","",""
"","psychophysics","527","771008","0.0-2.0-1.164","94t","[""L""]","","","","","","null","key","null","null","16.673135593219786","912","513","1","1","0","0","1","","",""
"","psychophysics","528","772017","0.0-2.0-3.164-0.164","94t","[""L""]","","","","","","null","key","null","null","16.671644067796247","912","513","1","1","0","0","1","","",""
"","psychophysics","529","774093","0.0-2.0-0.165","94t","[""L""]","","","","","","1372","key","m","m","16.67170161290391","912","513","1","1","1","0","0","false","",""
"","psychophysics","530","775097","0.0-2.0-1.165","94t","[""L""]","","","","","","null","key","null","null","16.671864406779896","912","513","1","1","1","0","0","","",""
"","psychophysics","531","776106","0.0-2.0-3.165-0.165","94t","[""L""]","","","","","","null","key","null","null","16.958172413793488","912","513","1","1","1","0","0","","",""
"","psychophysics","532","777327","0.0-2.0-0.166","94t","[""L""]","","","","","","519","key","z","z","16.67183561643828","912","513","1","1","0","1","1","true","",""
"","psychophysics","533","778334","0.0-2.0-1.166","94t","[""L""]","","","","","","null","key","null","null","16.672932203391458","912","513","1","1","0","1","1","","",""
"","psychophysics","534","779343","0.0-2.0-2.166-0.166","94t","[""L""]","","","","","","null","key","null","null","16.672766666667304","912","513","1","1","0","1","1","","",""
"","psychophysics","535","781252","0.0-2.0-0.167","94t","[""L""]","","","","","","1206","key","z","z","16.672026548672683","912","513","1","0","1","0","0","true","",""
"","psychophysics","536","782255","0.0-2.0-1.167","94t","[""L""]","","","","","","null","key","null","null","16.673186440677856","912","513","1","0","1","0","0","","",""
"","psychophysics","537","783265","0.0-2.0-2.167-0.167","94t","[""L""]","","","","","","null","key","null","null","16.672749999999844","912","513","1","0","1","0","0","","",""
"","psychophysics","538","786173","0.0-2.0-0.168","94t","[""L""]","","","","","","2206","key","m","m","16.67156647398834","912","513","2","0","0","1","0","true","",""
"","psychophysics","539","787182","0.0-2.0-1.168","94t","[""L""]","","","","","","null","key","null","null","16.673183333334357","912","513","2","0","0","1","0","","",""
"","psychophysics","540","788191","0.0-2.0-2.168-0.168","94t","[""L""]","","","","","","null","key","null","null","16.671779661015133","912","513","2","0","0","1","0","","",""
"","psychophysics","541","791109","0.0-2.0-0.169","94t","[""L""]","","","","","","2214","key","z","z","16.672206896551934","912","513","1","0","1","1","0","true","",""
"","psychophysics","542","792117","0.0-2.0-1.169","94t","[""L""]","","","","","","null","key","null","null","16.672916666666666","912","513","1","0","1","1","0","","",""
"","psychophysics","543","793125","0.0-2.0-2.169-0.169","94t","[""L""]","","","","","","null","key","null","null","16.671169491524225","912","513","1","0","1","1","0","","",""
"","psychophysics","544","795900","0.0-2.0-0.170","94t","[""L""]","","","","","","2071","key","m","m","16.671861445783016","912","513","2","1","0","1","0","true","",""
"","psychophysics","545","796912","0.0-2.0-1.170","94t","[""L""]","","","","","","null","key","null","null","16.673271186440648","912","513","2","1","0","1","0","","",""
"","psychophysics","546","797921","0.0-2.0-2.170-0.170","94t","[""L""]","","","","","","null","key","null","null","16.67158333333403","912","513","2","1","0","1","0","","",""
"","psychophysics","547","800093","0.0-2.0-0.171","94t","[""L""]","","","","","","1467","key","m","m","16.80267968750013","912","513","1","1","1","0","1","false","",""
"","psychophysics","548","801102","0.0-2.0-1.171","94t","[""L""]","","","","","","null","key","null","null","16.672833333333255","912","513","1","1","1","0","1","","",""
"","psychophysics","549","802110","0.0-2.0-3.171-0.171","94t","[""L""]","","","","","","null","key","null","null","16.671694915254317","912","513","1","1","1","0","1","","",""
"","psychophysics","550","804732","0.0-2.0-0.172","94t","[""L""]","","","","","","1916","key","m","m","16.671503184713234","912","513","1","0","1","1","0","false","",""
"","psychophysics","551","805736","0.0-2.0-1.172","94t","[""L""]","","","","","","null","key","null","null","16.67142372881457","912","513","1","0","1","1","0","","",""
"","psychophysics","552","806740","0.0-2.0-3.172-0.172","94t","[""L""]","","","","","","null","key","null","null","16.673186440677856","912","513","1","0","1","1","0","","",""
"","psychophysics","553","808197","0.0-2.0-0.173","94t","[""L""]","","","","","","753","key","m","m","16.671790697674137","912","513","1","0","1","0","1","false","",""
"","psychophysics","554","809206","0.0-2.0-1.173","94t","[""L""]","","","","","","null","key","null","null","16.672199999998945","912","513","1","0","1","0","1","","",""
"","psychophysics","555","810214","0.0-2.0-3.173-0.173","94t","[""L""]","","","","","","null","key","null","null","16.67181355932183","912","513","1","0","1","0","1","","",""
"","psychophysics","556","812109","0.0-2.0-0.174","94t","[""L""]","","","","","","1190","key","m","m","16.672238938053","912","513","1","1","1","1","1","false","",""
"","psychophysics","557","813116","0.0-2.0-1.174","94t","[""L""]","","","","","","null","key","null","null","16.670694915254174","912","513","1","1","1","1","1","","",""
"","psychophysics","558","814126","0.0-2.0-3.174-0.174","94t","[""L""]","","","","","","null","key","null","null","16.672000000001088","912","513","1","1","1","1","1","","",""
"","psychophysics","559","815499","0.0-2.0-0.175","94t","[""L""]","","","","","","669","key","z","z","16.67093827160518","912","513","1","1","0","1","0","true","",""
"","psychophysics","560","816504","0.0-2.0-1.175","94t","[""L""]","","","","","","null","key","null","null","16.672933333332185","912","513","1","1","0","1","0","","",""
"","psychophysics","561","817513","0.0-2.0-2.175-0.175","94t","[""L""]","","","","","","null","key","null","null","16.670745762712244","912","513","1","1","0","1","0","","",""
"","psychophysics","562","819188","0.0-2.0-0.176","94t","[""L""]","","","","","","971","key","z","z","16.671170000000856","912","513","2","0","0","1","1","false","",""
"","psychophysics","563","820192","0.0-2.0-1.176","94t","[""L""]","","","","","","null","key","null","null","16.671610169491526","912","513","2","0","0","1","1","","",""
"","psychophysics","564","821195","0.0-2.0-3.176-0.176","94t","[""L""]","","","","","","null","key","null","null","16.673949152542974","912","513","2","0","0","1","1","","",""
"","psychophysics","565","822995","0.0-2.0-0.177","94t","[""L""]","","","","","","1098","key","m","m","16.6715887850466","912","513","1","1","1","1","1","false","",""
"","psychophysics","566","823998","0.0-2.0-1.177","94t","[""L""]","","","","","","null","key","null","null","16.673881355931556","912","513","1","1","1","1","1","","",""
"","psychophysics","567","825008","0.0-2.0-3.177-0.177","94t","[""L""]","","","","","","null","key","null","null","16.669716666666016","912","513","1","1","1","1","1","","",""
"","psychophysics","568","826443","0.0-2.0-0.178","94t","[""L""]","","","","","","734","key","z","z","16.671623529411633","912","513","2","0","0","0","0","false","",""
"","psychophysics","569","827446","0.0-2.0-1.178","94t","[""L""]","","","","","","null","key","null","null","16.672779661015277","912","513","2","0","0","0","0","","",""
"","psychophysics","570","828449","0.0-2.0-3.178-0.178","94t","[""L""]","","","","","","null","key","null","null","16.672983050847552","912","513","2","0","0","0","0","","",""
"","psychophysics","571","829942","0.0-2.0-0.179","94t","[""L""]","","","","","","789","key","m","m","16.672325842697276","912","513","1","0","1","0","1","false","",""
"","psychophysics","572","830951","0.0-2.0-1.179","94t","[""L""]","","","","","","null","key","null","null","16.670610169491383","912","513","1","0","1","0","1","","",""
"","psychophysics","573","831954","0.0-2.0-3.179-0.179","94t","[""L""]","","","","","","null","key","null","null","16.672610169491666","912","513","1","0","1","0","1","","",""
"","psychophysics","574","833268","0.0-2.0-0.180","94t","[""L""]","","","","","","612","key","m","m","16.674025641024436","912","513","2","0","1","0","1","true","",""
"","psychophysics","575","834272","0.0-2.0-1.180","94t","[""L""]","","","","","","null","key","null","null","16.67338983050816","912","513","2","0","1","0","1","","",""
"","psychophysics","576","835282","0.0-2.0-2.180-0.180","94t","[""L""]","","","","","","null","key","null","null","16.672350000000247","912","513","2","0","1","0","1","","",""
"","psychophysics","577","836645","0.0-2.0-0.181","94t","[""L""]","","","","","","658","key","m","m","16.67248148148172","912","513","2","0","1","1","1","true","",""
"","psychophysics","578","837652","0.0-2.0-1.181","94t","[""L""]","","","","","","null","key","null","null","16.67284745762669","912","513","2","0","1","1","1","","",""
"","psychophysics","579","838661","0.0-2.0-2.181-0.181","94t","[""L""]","","","","","","null","key","null","null","16.67206666666704","912","513","2","0","1","1","1","","",""
