subID,trialNum,cntBalance,correct,rt,winner,p1conf,p2conf,p1rslt,p2rslt,
94t,1,L,true,10560,1,1,1,1,1,
94t,2,L,true,3126,2,0,1,0,1,
94t,3,L,false,2106,2,1,0,1,0,
94t,4,L,true,2412,2,0,0,1,1,
94t,5,L,true,2628,1,1,1,1,0,
94t,6,L,false,1694,2,0,0,1,1,
94t,7,L,true,1360,1,0,0,0,1,
94t,8,L,false,1357,2,0,1,1,0,
94t,9,L,true,1196,2,0,0,0,1,
94t,10,L,true,880,1,1,1,1,1,
94t,11,L,true,3114,1,1,1,1,1,
94t,12,L,true,851,2,0,1,1,1,
94t,13,L,true,2220,2,1,0,1,1,
94t,14,L,false,1588,1,0,1,1,0,
94t,15,L,true,1163,2,0,1,0,1,
94t,16,L,true,721,1,0,0,1,1,
94t,17,L,true,1318,2,0,1,1,0,
94t,18,L,true,944,1,0,1,1,0,
94t,19,L,true,1386,1,1,0,1,1,
94t,20,L,false,1524,1,1,0,1,0,
94t,21,L,true,1253,2,0,0,1,1,
94t,22,L,true,764,2,1,1,1,1,
94t,23,L,true,652,1,1,0,1,1,
94t,24,L,true,618,1,1,0,1,1,
94t,25,L,true,592,2,1,0,1,1,
94t,26,L,true,735,1,0,1,1,1,
94t,27,L,false,505,2,0,0,0,0,
94t,28,L,true,597,2,0,0,1,0,
94t,29,L,false,533,2,0,0,0,0,
94t,30,L,false,457,2,0,1,0,1,
94t,31,L,false,642,1,0,1,0,0,
94t,32,L,false,837,1,0,0,1,0,
94t,33,L,false,297,1,1,0,1,1,
94t,34,L,true,398,1,0,0,1,0,
94t,35,L,false,565,1,0,1,0,1,
94t,36,L,true,489,1,0,1,0,1,
94t,37,L,true,178,1,1,0,1,0,
94t,38,L,false,320,2,0,1,1,0,
94t,39,L,false,490,1,1,0,0,0,
94t,40,L,true,742,2,0,1,0,1,
94t,41,L,true,365,1,1,0,0,1,
94t,42,L,false,614,1,1,0,1,0,
94t,43,L,false,2367,1,1,0,0,1,
94t,44,L,false,1146,2,0,1,0,0,
94t,45,L,true,1359,2,0,1,1,1,
94t,46,L,true,767,2,1,0,1,1,
94t,47,L,true,704,1,1,1,1,1,
94t,48,L,true,726,1,1,1,1,1,
94t,49,L,false,1525,2,0,1,1,0,
94t,50,L,false,821,1,0,0,1,0,
94t,51,L,false,1711,2,1,1,0,1,
94t,52,L,false,4477,1,0,1,1,0,
94t,53,L,true,2321,2,1,0,1,1,
94t,54,L,false,2326,1,1,1,1,1,
94t,55,L,false,1663,2,1,0,0,0,
94t,56,L,false,1637,2,0,1,0,0,
94t,57,L,true,2669,2,1,0,1,1,
94t,58,L,false,2531,2,0,0,0,0,
94t,59,L,false,1821,1,0,1,0,1,
94t,60,L,false,2231,2,0,1,0,1,
94t,61,L,false,2212,1,0,0,1,1,
94t,62,L,true,3262,1,0,0,0,1,
94t,63,L,false,1520,2,0,1,1,1,
94t,64,L,false,1922,1,1,1,1,1,
94t,65,L,false,1121,1,1,1,0,0,
94t,66,L,true,1211,1,1,1,1,0,
94t,67,L,true,1118,1,0,1,0,1,
94t,68,L,true,795,1,1,1,1,1,
94t,69,L,false,795,2,0,1,1,0,
94t,70,L,true,687,2,1,0,1,0,
94t,71,L,false,741,1,1,0,0,1,
94t,72,L,true,640,1,0,1,0,1,
94t,73,L,false,879,2,1,0,0,1,
94t,74,L,true,1259,2,1,0,1,1,
94t,75,L,true,1649,1,0,0,0,1,
94t,76,L,true,2006,1,0,0,1,1,
94t,77,L,true,1533,1,1,0,0,1,
94t,78,L,false,1675,1,1,0,1,0,
94t,79,L,true,1918,1,0,1,0,1,
94t,80,L,true,1586,2,1,0,0,0,
94t,81,L,true,1735,2,0,1,0,1,
94t,82,L,true,1831,2,1,0,1,1,
94t,83,L,false,2290,2,0,0,1,0,
94t,84,L,false,1000,2,1,0,1,1,
94t,85,L,true,1775,2,1,1,0,1,
94t,86,L,true,600,2,0,1,1,1,
94t,87,L,false,1708,1,1,1,1,1,
94t,88,L,false,877,1,0,1,0,0,
94t,89,L,false,1161,2,0,1,1,1,
94t,90,L,true,1109,2,1,0,1,1,
94t,91,L,true,850,2,1,0,1,1,
94t,92,L,true,2287,2,0,0,0,1,
94t,93,L,false,2683,1,0,0,0,1,
94t,94,L,false,1940,2,1,1,1,1,
94t,95,L,true,3234,2,0,1,0,1,
94t,96,L,false,1505,2,0,1,1,0,
94t,97,L,true,1942,1,0,1,1,1,
94t,98,L,false,2734,1,0,1,0,1,
94t,99,L,true,1220,2,0,1,1,1,
94t,100,L,true,2463,2,0,0,0,1,
brk,brk,brk,brk,brk,brk,brk,brk,brk,brk,
94t,101,L,true,6636,1,0,0,0,1,
94t,102,L,false,1918,1,1,0,1,0,
94t,103,L,true,1204,2,1,0,1,1,
94t,104,L,true,1607,1,0,0,1,1,
94t,105,L,true,1409,2,1,1,1,1,
94t,106,L,false,1877,2,0,1,1,0,
94t,107,L,false,1553,1,0,0,0,0,
94t,108,L,false,927,1,0,0,1,1,
94t,109,L,true,1417,2,1,1,0,0,
94t,110,L,true,1479,2,0,1,0,1,
94t,111,L,true,1419,2,0,0,0,1,
94t,112,L,true,2468,2,1,0,1,0,
94t,113,L,false,1866,1,1,1,1,0,
94t,114,L,false,2509,1,0,1,0,1,
94t,115,L,true,1617,2,0,1,1,1,
94t,116,L,false,1483,1,1,1,1,1,
94t,117,L,true,1207,2,1,1,1,1,
94t,118,L,false,1465,2,0,1,1,1,
94t,119,L,true,913,2,0,0,1,1,
94t,120,L,false,945,1,0,1,0,0,
94t,121,L,false,1308,2,0,1,0,1,
94t,122,L,true,793,2,1,1,1,1,
94t,123,L,false,3690,1,0,0,0,1,
94t,124,L,true,1009,2,1,0,1,1,
94t,125,L,false,628,2,0,1,0,0,
94t,126,L,false,985,1,0,0,1,1,
94t,127,L,true,1110,2,0,0,1,0,
94t,128,L,false,824,1,0,0,1,0,
94t,129,L,true,1650,2,1,0,1,0,
94t,130,L,false,1791,1,1,1,0,1,
94t,131,L,true,683,2,1,1,1,1,
94t,132,L,true,705,1,0,1,1,1,
94t,133,L,false,1160,1,0,1,0,1,
94t,134,L,false,2091,1,0,0,1,0,
94t,135,L,true,1103,2,0,0,1,1,
94t,136,L,false,940,1,1,0,0,1,
94t,137,L,true,1250,2,0,1,0,1,
94t,138,L,false,2550,1,0,0,0,1,
94t,139,L,false,1432,2,1,0,1,1,
94t,140,L,false,969,1,0,0,0,1,
94t,141,L,false,950,1,1,1,0,0,
94t,142,L,false,1200,1,1,1,0,0,
94t,143,L,false,736,1,0,1,0,1,
94t,144,L,false,322,2,0,0,0,1,
94t,145,L,true,350,2,1,1,1,1,
94t,146,L,true,566,2,1,0,1,1,
94t,147,L,true,597,2,0,0,1,0,
94t,148,L,true,331,1,1,0,1,1,
94t,149,L,false,392,1,0,1,1,1,
94t,150,L,false,681,1,1,0,1,0,
94t,151,L,false,350,2,0,0,1,1,
94t,152,L,true,209,2,0,1,1,1,
94t,153,L,false,463,1,1,1,1,0,
94t,154,L,false,388,2,1,1,0,1,
94t,155,L,true,785,1,1,0,1,1,
94t,156,L,false,1942,1,1,0,1,0,
94t,157,L,true,659,2,0,1,1,1,
94t,158,L,true,846,2,0,1,0,1,
94t,159,L,false,1058,2,1,0,0,1,
94t,160,L,false,486,1,1,0,0,1,
94t,161,L,true,600,2,0,1,1,0,
94t,162,L,false,1096,2,1,1,1,1,
94t,163,L,false,1022,1,0,1,1,0,
94t,164,L,true,1170,2,1,0,1,0,
94t,165,L,false,1160,1,1,0,0,1,
94t,166,L,false,1372,1,1,1,0,0,
94t,167,L,true,519,1,1,0,1,1,
94t,168,L,true,1206,1,0,1,0,0,
94t,169,L,true,2206,2,0,0,1,0,
94t,170,L,true,2214,1,0,1,1,0,
94t,171,L,true,2071,2,1,0,1,0,
94t,172,L,false,1467,1,1,1,0,1,
94t,173,L,false,1916,1,0,1,1,0,
94t,174,L,false,753,1,0,1,0,1,
94t,175,L,false,1190,1,1,1,1,1,
94t,176,L,true,669,1,1,0,1,0,
94t,177,L,false,971,2,0,0,1,1,
94t,178,L,false,1098,1,1,1,1,1,
94t,179,L,false,734,2,0,0,0,0,
94t,180,L,false,789,1,0,1,0,1,
94t,181,L,true,612,2,0,1,0,1,
94t,182,L,true,658,2,0,1,1,1,
94t,183,L,true,952,2,1,0,1,1,
94t,184,L,true,809,2,1,0,1,1,
94t,185,L,false,960,1,0,1,0,1,
94t,186,L,false,381,2,1,0,1,0,
94t,187,L,false,475,1,0,0,1,0,
94t,188,L,true,362,2,0,1,0,1,
94t,189,L,true,337,1,1,1,1,1,
94t,190,L,true,351,2,0,1,0,1,
94t,191,L,false,487,2,1,1,1,1,
94t,192,L,false,276,2,0,0,0,0,
94t,193,L,false,606,1,1,1,1,0,
94t,194,L,false,183,2,0,1,0,1,
94t,195,L,true,711,1,1,0,1,1,
94t,196,L,true,751,1,0,1,1,1,
94t,197,L,true,1025,2,0,1,1,0,
94t,198,L,false,731,1,1,0,0,0,
94t,199,L,false,624,2,1,0,0,1,
94t,200,L,false,726,1,1,0,0,1,
brk,brk,brk,brk,brk,brk,brk,brk,brk,brk,
94t,201,L,true,1169,2,0,0,1,1,
94t,202,L,false,981,1,0,1,1,0,
94t,203,L,true,524,1,1,0,1,1,
94t,204,L,false,473,2,0,0,0,1,
94t,205,L,false,382,1,0,1,0,1,
94t,206,L,true,392,2,1,0,1,0,
94t,207,L,false,412,2,0,0,0,1,
94t,208,L,true,552,2,1,0,1,0,
94t,209,L,false,496,2,1,1,0,0,
94t,210,L,false,549,1,0,0,0,1,
94t,211,L,true,507,1,1,1,1,1,
94t,212,L,true,465,1,1,0,1,1,
94t,213,L,true,407,2,0,0,1,1,
94t,214,L,true,424,2,0,1,1,1,
94t,215,L,true,526,2,0,0,0,1,
94t,216,L,false,366,2,1,1,0,0,
94t,217,L,false,450,1,0,1,0,0,
94t,218,L,false,363,1,1,1,0,1,
94t,219,L,true,547,2,0,1,1,1,
94t,220,L,true,1718,1,1,1,1,1,
94t,221,L,false,1359,2,0,0,1,0,
94t,222,L,false,576,1,1,0,0,1,
94t,223,L,true,789,2,1,0,1,1,
94t,224,L,true,920,2,1,0,1,1,
94t,225,L,false,934,1,0,0,0,0,
94t,226,L,true,872,1,0,0,1,1,
94t,227,L,true,1599,1,1,0,1,0,
94t,228,L,true,624,1,1,1,1,1,
94t,229,L,true,553,2,0,1,1,1,
94t,230,L,true,602,1,1,0,1,1,
94t,231,L,true,702,1,1,0,1,1,
94t,232,L,false,925,2,0,0,0,0,
94t,233,L,true,770,2,0,1,1,1,
94t,234,L,false,647,1,0,0,0,1,
94t,235,L,false,556,1,0,1,0,1,
94t,236,L,true,442,1,0,0,1,1,
94t,237,L,false,425,2,0,1,1,0,
94t,238,L,true,383,1,1,0,1,0,
94t,239,L,false,432,1,1,0,1,0,
94t,240,L,true,545,1,0,1,1,0,
94t,241,L,false,470,1,1,0,0,1,
94t,242,L,true,436,2,1,0,1,1,
94t,243,L,true,421,1,1,0,1,1,
94t,244,L,true,542,2,0,0,0,1,
94t,245,L,true,643,2,1,1,1,1,
94t,246,L,false,625,2,1,0,0,1,
94t,247,L,false,726,1,1,1,0,1,
94t,248,L,true,854,2,0,0,0,1,
94t,249,L,true,637,1,0,0,0,1,
94t,250,L,true,724,1,1,0,1,1,
94t,251,L,true,713,1,1,1,1,1,
94t,252,L,true,1407,2,0,0,0,1,
94t,253,L,false,579,2,0,1,0,0,
94t,254,L,true,667,2,0,1,1,1,
94t,255,L,false,658,1,1,1,0,1,
94t,256,L,true,351,2,0,0,0,1,
94t,257,L,false,741,2,0,0,1,0,
94t,258,L,false,404,1,0,1,0,1,
94t,259,L,true,451,1,0,1,0,1,
94t,260,L,true,597,1,0,0,0,1,
94t,261,L,true,398,2,0,0,1,1,
94t,262,L,false,403,1,1,1,0,0,
94t,263,L,false,416,1,1,0,1,0,
94t,264,L,false,444,2,0,1,0,1,
94t,265,L,true,716,1,1,1,0,1,
94t,266,L,true,477,1,1,0,1,1,
94t,267,L,true,740,2,1,1,1,1,
94t,268,L,true,705,2,0,0,1,1,
94t,269,L,true,551,2,1,0,1,1,
94t,270,L,true,577,1,1,0,1,1,
94t,271,L,false,740,1,0,1,1,0,
94t,272,L,true,454,2,1,1,1,1,
94t,273,L,false,567,2,1,0,1,0,
94t,274,L,true,542,2,1,0,1,1,
94t,275,L,true,711,1,1,1,0,1,
94t,276,L,true,530,2,0,1,0,1,
94t,277,L,true,581,1,1,1,1,1,
94t,278,L,true,567,2,1,1,1,1,
94t,279,L,true,579,1,0,0,1,1,
94t,280,L,true,630,2,0,0,1,1,
94t,281,L,false,589,1,0,1,0,0,
94t,282,L,true,558,1,0,1,1,0,
94t,283,L,true,634,2,0,1,0,1,
94t,284,L,true,462,2,0,1,1,1,
94t,285,L,true,671,2,0,1,1,1,
94t,286,L,true,552,1,1,1,1,1,
94t,287,L,true,622,1,1,1,0,1,
94t,288,L,true,791,1,1,0,1,1,
94t,289,L,false,1091,1,0,1,1,1,
94t,290,L,true,479,2,1,0,1,1,
94t,291,L,true,607,1,0,0,0,1,
94t,292,L,false,659,1,0,1,0,0,
94t,293,L,true,568,2,1,1,1,1,
94t,294,L,false,686,2,0,0,0,0,
94t,295,L,true,477,1,1,0,0,1,
94t,296,L,false,468,1,0,1,1,0,
94t,297,L,true,512,1,1,0,1,1,
94t,298,L,true,543,2,1,1,1,1,
94t,299,L,false,1041,2,1,1,1,0,
94t,300,L,true,449,2,1,1,1,1,
brk,brk,brk,brk,brk,brk,brk,brk,brk,brk,
94t,301,L,false,848,2,1,1,0,0,
94t,302,L,false,997,1,0,0,1,0,
94t,303,L,false,485,2,1,0,0,1,
94t,304,L,true,420,1,0,0,1,1,
94t,305,L,true,470,1,1,1,1,1,
94t,306,L,true,445,2,1,0,1,1,
94t,307,L,false,681,2,0,0,0,0,
94t,308,L,false,821,1,0,0,1,0,
94t,309,L,false,683,1,0,1,0,1,
94t,310,L,true,439,2,1,0,1,1,
94t,311,L,true,497,1,1,0,0,1,
94t,312,L,true,445,2,0,0,1,1,
94t,313,L,false,413,1,1,1,1,0,
94t,314,L,true,992,2,1,1,1,0,
94t,315,L,true,613,2,1,0,0,1,
94t,316,L,true,766,1,1,0,0,1,
94t,317,L,true,561,2,1,0,1,0,
94t,318,L,false,500,1,0,0,0,1,
94t,319,L,false,1964,1,0,0,0,1,
94t,320,L,true,596,1,1,0,1,0,
94t,321,L,false,431,1,0,0,1,0,
94t,322,L,true,510,2,0,1,0,1,
94t,323,L,false,632,2,0,1,1,0,
94t,324,L,true,350,1,0,1,1,0,
94t,325,L,false,40,2,0,0,0,0,
94t,326,L,false,292,1,1,0,1,1,
94t,327,L,false,599,1,1,0,1,0,
94t,328,L,true,1007,1,1,0,1,1,
94t,329,L,false,1255,2,0,1,1,0,
94t,330,L,true,783,2,1,0,1,1,
94t,331,L,false,645,2,0,1,0,1,
94t,332,L,true,748,1,1,1,1,1,
94t,333,L,true,720,1,1,1,1,1,
94t,334,L,false,1136,1,0,0,0,1,
94t,335,L,true,471,2,1,0,1,1,
94t,336,L,false,518,1,1,1,1,0,
94t,337,L,false,518,2,1,0,1,0,
94t,338,L,false,511,1,0,1,1,0,
94t,339,L,true,467,2,0,1,1,1,
94t,340,L,true,688,1,1,1,1,1,
94t,341,L,true,751,2,1,0,1,1,
94t,342,L,true,750,2,0,1,1,1,
94t,343,L,true,750,2,0,1,1,0,
94t,344,L,true,1270,2,0,0,1,1,
94t,345,L,true,1065,2,1,1,1,1,
94t,346,L,false,1059,1,0,0,1,1,
94t,347,L,true,945,2,1,0,1,1,
94t,348,L,true,853,2,1,0,1,1,
94t,349,L,true,1029,1,1,1,1,1,
94t,350,L,true,1012,2,0,1,1,1,
94t,351,L,true,802,2,0,0,1,1,
94t,352,L,true,721,2,0,0,1,1,
94t,353,L,true,1232,2,0,0,1,0,
94t,354,L,false,635,1,0,0,0,1,
94t,355,L,true,1200,2,1,0,1,1,
94t,356,L,true,2030,1,0,1,0,1,
94t,357,L,true,1296,1,1,0,1,1,
94t,358,L,false,718,1,1,0,0,0,
94t,359,L,true,853,2,1,1,1,1,
94t,360,L,false,1192,1,0,1,0,1,
94t,361,L,false,1006,1,0,1,1,0,
94t,362,L,true,943,2,1,1,1,1,
94t,363,L,false,1086,2,0,0,0,1,
94t,364,L,false,727,2,0,0,1,0,
94t,365,L,false,487,1,1,1,0,0,
94t,366,L,true,710,1,0,0,1,1,
94t,367,L,true,775,1,1,1,1,0,
94t,368,L,true,719,2,1,1,1,1,
94t,369,L,true,630,2,0,0,1,1,
94t,370,L,false,661,2,0,1,0,1,
94t,371,L,true,655,2,1,1,1,1,
94t,372,L,false,889,1,1,1,0,1,
94t,373,L,false,489,1,0,1,1,0,
94t,374,L,true,512,1,1,1,1,1,
94t,375,L,true,590,2,1,0,1,1,
94t,376,L,true,660,1,1,1,1,1,
94t,377,L,true,615,2,1,1,1,1,
94t,378,L,true,686,2,1,0,1,1,
94t,379,L,true,711,1,1,1,1,1,
94t,380,L,true,565,2,0,1,1,1,
94t,381,L,true,645,1,0,1,1,1,
94t,382,L,true,2178,2,0,0,1,0,
94t,383,L,false,807,2,0,0,0,1,
94t,384,L,true,856,2,1,0,1,1,
94t,385,L,true,1081,2,0,0,0,1,
94t,386,L,false,1519,2,0,1,0,0,
94t,387,L,true,782,2,1,0,1,1,
94t,388,L,true,726,1,0,0,1,1,
94t,389,L,true,737,2,1,0,1,1,
94t,390,L,true,647,1,0,0,1,1,
94t,391,L,true,1310,2,0,0,0,1,
94t,392,L,true,780,2,1,1,1,1,
94t,393,L,false,960,1,1,0,1,0,
94t,394,L,true,708,2,0,0,1,1,
94t,395,L,true,744,1,1,1,1,1,
94t,396,L,true,809,1,1,0,1,1,
94t,397,L,true,654,1,1,0,1,1,
94t,398,L,true,622,1,1,0,1,1,
94t,399,L,true,492,1,0,1,1,0,
94t,400,L,true,412,1,0,1,1,0,
brk,brk,brk,brk,brk,brk,brk,brk,brk,brk,
94t,401,L,true,1904,2,0,0,0,1,
94t,402,L,false,1429,1,1,0,0,1,
94t,403,L,true,1193,1,1,0,1,1,
94t,404,L,true,898,2,1,0,1,1,
94t,405,L,true,1980,2,1,1,0,1,
94t,406,L,true,1328,2,0,0,0,1,
94t,407,L,true,761,2,0,1,1,1,
94t,408,L,true,652,1,0,1,1,1,
94t,409,L,false,790,1,0,1,0,0,
94t,410,L,false,1487,1,0,0,0,1,
94t,411,L,false,1287,2,1,1,1,0,
94t,412,L,true,864,1,1,0,1,1,
94t,413,L,false,1517,1,0,1,1,0,
94t,414,L,false,1259,1,1,1,1,0,
94t,415,L,false,992,2,1,0,0,0,
94t,416,L,true,1193,2,1,0,1,0,
94t,417,L,true,877,2,1,1,1,1,
94t,418,L,true,1620,1,0,1,0,1,
94t,419,L,true,1740,1,1,0,1,0,
94t,420,L,false,1688,1,0,0,1,0,
94t,421,L,false,980,1,1,0,0,0,
94t,422,L,false,770,2,1,1,1,1,
94t,423,L,false,1219,1,0,0,0,0,
94t,424,L,true,1272,1,0,0,0,1,
94t,425,L,true,1478,1,1,0,1,0,
94t,426,L,true,670,1,0,1,1,1,
94t,427,L,false,1559,2,0,1,0,1,
94t,428,L,true,1064,1,1,0,1,1,
94t,429,L,true,1073,2,1,1,1,1,
94t,430,L,true,1414,1,1,0,1,1,
94t,431,L,true,852,1,1,0,1,1,
94t,432,L,true,662,1,1,1,1,1,
94t,433,L,true,790,1,1,1,1,1,
94t,434,L,true,1860,1,0,0,1,0,
94t,435,L,true,916,2,1,1,1,1,
94t,436,L,true,871,1,1,0,1,1,
94t,437,L,true,2053,2,1,0,1,0,
94t,438,L,false,932,2,1,1,0,1,
94t,439,L,true,1702,1,0,1,0,1,
94t,440,L,true,1307,1,0,1,0,1,
94t,441,L,true,1205,2,1,0,1,1,
94t,442,L,true,804,2,0,1,1,1,
94t,443,L,true,968,1,1,0,1,1,
94t,444,L,true,1259,1,1,0,1,0,
94t,445,L,false,975,2,1,1,0,0,
94t,446,L,false,1663,1,1,0,0,1,
94t,447,L,true,933,1,1,0,1,1,
94t,448,L,true,1310,1,1,0,1,1,
94t,449,L,false,994,1,0,0,1,1,
94t,450,L,true,869,1,1,1,1,1,
94t,451,L,true,2079,1,0,0,0,1,
94t,452,L,true,757,1,0,1,1,1,
94t,453,L,true,920,2,0,1,1,1,
94t,454,L,false,867,2,0,1,0,0,
94t,455,L,true,312,2,1,0,1,1,
94t,456,L,false,334,1,1,1,1,0,
94t,457,L,true,576,1,1,1,1,1,
94t,458,L,false,846,2,0,0,1,0,
94t,459,L,false,674,2,1,1,0,1,
94t,460,L,true,572,1,0,0,1,1,
94t,461,L,true,864,1,1,1,1,1,
94t,462,L,true,797,2,1,1,1,1,
94t,463,L,true,623,2,0,1,1,1,
94t,464,L,false,742,1,1,0,0,0,
94t,465,L,true,1100,2,0,0,1,1,
94t,466,L,true,695,2,1,0,1,1,
94t,467,L,true,1007,1,1,0,1,1,
94t,468,L,false,1326,1,0,1,1,0,
94t,469,L,true,539,1,0,1,1,1,
94t,470,L,false,800,1,0,0,0,0,
94t,471,L,true,712,1,0,1,1,1,
94t,472,L,true,1074,1,0,1,0,0,
94t,473,L,false,526,1,1,0,1,1,
94t,474,L,false,558,2,1,0,0,1,
94t,475,L,true,622,1,1,0,1,1,
94t,476,L,true,890,2,1,1,1,1,
94t,477,L,true,727,2,0,0,1,1,
94t,478,L,true,571,1,1,0,1,0,
94t,479,L,true,559,2,1,0,1,0,
94t,480,L,false,589,1,0,1,0,0,
94t,481,L,true,541,2,1,0,1,0,
94t,482,L,true,653,2,1,1,1,1,
94t,483,L,false,797,2,1,1,0,0,
94t,484,L,false,581,1,1,0,0,1,
94t,485,L,true,696,2,0,0,1,1,
94t,486,L,true,699,2,0,1,1,1,
94t,487,L,true,739,2,0,1,1,1,
94t,488,L,true,690,1,0,0,1,1,
94t,489,L,false,1682,1,0,1,0,1,
94t,490,L,true,703,1,0,1,1,1,
94t,491,L,true,616,2,0,0,1,1,
94t,492,L,true,518,1,0,0,1,0,
94t,493,L,false,636,2,0,1,0,0,
94t,494,L,true,685,2,1,1,1,1,
94t,495,L,false,1813,2,0,0,1,0,
94t,496,L,false,1029,1,1,0,0,0,
94t,497,L,true,646,2,0,0,1,1,
94t,498,L,false,1074,1,0,1,1,1,
94t,499,L,false,548,1,0,1,0,0,
94t,500,L,true,693,1,1,1,1,1,
