"success","trial_type","trial_index","time_elapsed","internal_node_id","subject","condition","timeout","failed_images","failed_audio","failed_video","view_history","rt","response_type","key_press","response","avg_frame_time","center_x","center_y","outcome","p1conf","p2conf","p1rslt","p2rslt","correct","stimulus","question_order"
"true","fullscreen","0","2691","0.0-0.0-0.0","7t8","[""L""]","","","","","","","","","","","","","","","","","","","",""
"true","preload","1","2695","0.0-0.0-1.0","7t8","[""L""]","false","[]","[]","[]","","","","","","","","","","","","","","","",""
"","instructions","2","79790","0.0-1.0","7t8","[""L""]","","","","","[{""page_index"":0,""viewing_time"":24925},{""page_index"":1,""viewing_time"":20928},{""page_index"":2,""viewing_time"":31240}]","77093","","","","","","","","","","","","","",""
"","psychophysics","3","86045","0.0-2.0-0.0","7t8","[""L""]","","","","","","5542","key","m","m","16.716403743315503","912","513","2","1","1","1","1","true","",""
"","psychophysics","4","87058","0.0-2.0-1.0","7t8","[""L""]","","","","","","null","key","null","null","16.674033898305023","912","513","2","1","1","1","1","","",""
"","psychophysics","5","88068","0.0-2.0-2.0-0.0","7t8","[""L""]","","","","","","null","key","null","null","16.671266666666632","912","513","2","1","1","1","1","","",""
"","psychophysics","6","92235","0.0-2.0-0.1","7t8","[""L""]","","","","","","3460","key","m","m","16.672084337349407","912","513","1","0","1","0","0","false","",""
"","psychophysics","7","93243","0.0-2.0-1.1","7t8","[""L""]","","","","","","null","key","null","null","16.672033898304985","912","513","1","0","1","0","0","","",""
"","psychophysics","8","94255","0.0-2.0-3.1-0.1","7t8","[""L""]","","","","","","null","key","null","null","16.672933333333397","912","513","1","0","1","0","0","","",""
"","psychophysics","9","99690","0.0-2.0-0.2","7t8","[""L""]","","","","","","4730","key","z","z","16.671987692307717","912","513","1","1","0","1","0","true","",""
"","psychophysics","10","100699","0.0-2.0-1.2","7t8","[""L""]","","","","","","null","key","null","null","16.673283333333288","912","513","1","1","0","1","0","","",""
"","psychophysics","11","101709","0.0-2.0-2.2-0.2","7t8","[""L""]","","","","","","null","key","null","null","16.672406779661117","912","513","1","1","0","1","0","","",""
"","psychophysics","12","105755","0.0-2.0-0.3","7t8","[""L""]","","","","","","3338","key","z","z","16.67207438016532","912","513","2","1","1","0","0","false","",""
"","psychophysics","13","106762","0.0-2.0-1.3","7t8","[""L""]","","","","","","null","key","null","null","16.67281355932222","912","513","2","1","1","0","0","","",""
"","psychophysics","14","107772","0.0-2.0-3.3-0.3","7t8","[""L""]","","","","","","null","key","null","null","16.67305000000003","912","513","2","1","1","0","0","","",""
"","psychophysics","15","115154","0.0-2.0-0.4","7t8","[""L""]","","","","","","6678","key","m","m","16.67184162895927","912","513","1","0","0","0","0","false","",""
"","psychophysics","16","116162","0.0-2.0-1.4","7t8","[""L""]","","","","","","null","key","null","null","16.672762711864394","912","513","1","0","0","0","0","","",""
"","psychophysics","17","117173","0.0-2.0-3.4-0.4","7t8","[""L""]","","","","","","null","key","null","null","16.671966666666655","912","513","1","0","0","0","0","","",""
"","psychophysics","18","120746","0.0-2.0-0.5","7t8","[""L""]","","","","","","2870","key","m","m","16.67170422535213","912","513","1","0","0","1","0","false","",""
"","psychophysics","19","121755","0.0-2.0-1.5","7t8","[""L""]","","","","","","null","key","null","null","16.673016666666808","912","513","1","0","0","1","0","","",""
"","psychophysics","20","122764","0.0-2.0-3.5-0.5","7t8","[""L""]","","","","","","null","key","null","null","16.67240677966087","912","513","1","0","0","1","0","","",""
"","psychophysics","21","125386","0.0-2.0-0.6","7t8","[""L""]","","","","","","1918","key","m","m","16.67706410256412","912","513","2","0","0","0","1","true","",""
"","psychophysics","22","126395","0.0-2.0-1.6","7t8","[""L""]","","","","","","null","key","null","null","16.672133333333235","912","513","2","0","0","0","1","","",""
"","psychophysics","23","127404","0.0-2.0-2.6-0.6","7t8","[""L""]","","","","","","null","key","null","null","16.672440677966087","912","513","2","0","0","0","1","","",""
"","psychophysics","24","129740","0.0-2.0-0.7","7t8","[""L""]","","","","","","1631","key","m","m","16.671378571428587","912","513","1","0","0","1","0","false","",""
"","psychophysics","25","130748","0.0-2.0-1.7","7t8","[""L""]","","","","","","null","key","null","null","16.672559322033845","912","513","1","0","0","1","0","","",""
"","psychophysics","26","131758","0.0-2.0-3.7-0.7","7t8","[""L""]","","","","","","null","key","null","null","16.672566666666533","912","513","1","0","0","1","0","","",""
"","psychophysics","27","133770","0.0-2.0-0.8","7t8","[""L""]","","","","","","1309","key","m","m","16.67221848739501","912","513","2","1","1","1","1","true","",""
"","psychophysics","28","134779","0.0-2.0-1.8","7t8","[""L""]","","","","","","null","key","null","null","16.672066666666556","912","513","2","1","1","1","1","","",""
"","psychophysics","29","135789","0.0-2.0-2.8-0.8","7t8","[""L""]","","","","","","null","key","null","null","16.672423728813726","912","513","2","1","1","1","1","","",""
"","psychophysics","30","137714","0.0-2.0-0.9","7t8","[""L""]","","","","","","1219","key","m","m","16.671556521739063","912","513","2","1","1","1","1","true","",""
"","psychophysics","31","138721","0.0-2.0-1.9","7t8","[""L""]","","","","","","null","key","null","null","16.671915254236982","912","513","2","1","1","1","1","","",""
"","psychophysics","32","139731","0.0-2.0-2.9-0.9","7t8","[""L""]","","","","","","null","key","null","null","16.670416666666764","912","513","2","1","1","1","1","","",""
"","psychophysics","33","144298","0.0-2.0-0.10","7t8","[""L""]","","","","","","3864","key","z","z","16.672179487179505","912","513","1","0","1","1","1","true","",""
"","psychophysics","34","145306","0.0-2.0-1.10","7t8","[""L""]","","","","","","null","key","null","null","16.67199999999977","912","513","1","0","1","1","1","","",""
"","psychophysics","35","146315","0.0-2.0-2.10-0.10","7t8","[""L""]","","","","","","null","key","null","null","16.67288333333369","912","513","1","0","1","1","1","","",""
"","psychophysics","36","148794","0.0-2.0-0.11","7t8","[""L""]","","","","","","1775","key","z","z","16.671755102040763","912","513","2","0","0","0","1","false","",""
"","psychophysics","37","149801","0.0-2.0-1.11","7t8","[""L""]","","","","","","null","key","null","null","16.672550000000047","912","513","2","0","0","0","1","","",""
"","psychophysics","38","150812","0.0-2.0-3.11-0.11","7t8","[""L""]","","","","","","null","key","null","null","16.67303333333354","912","513","2","0","0","0","1","","",""
"","psychophysics","39","153081","0.0-2.0-0.12","7t8","[""L""]","","","","","","1565","key","m","m","16.79623880597012","912","513","1","0","1","1","0","false","",""
"","psychophysics","40","154089","0.0-2.0-1.12","7t8","[""L""]","","","","","","null","key","null","null","16.67208474576256","912","513","1","0","1","1","0","","",""
"","psychophysics","41","155101","0.0-2.0-3.12-0.12","7t8","[""L""]","","","","","","null","key","null","null","16.673466666666595","912","513","1","0","1","1","0","","",""
"","psychophysics","42","158258","0.0-2.0-0.13","7t8","[""L""]","","","","","","2453","key","z","z","16.671787234042565","912","513","1","0","0","1","1","true","",""
"","psychophysics","43","159267","0.0-2.0-1.13","7t8","[""L""]","","","","","","null","key","null","null","16.6724000000002","912","513","1","0","0","1","1","","",""
"","psychophysics","44","160275","0.0-2.0-2.13-0.13","7t8","[""L""]","","","","","","null","key","null","null","16.672118644067776","912","513","1","0","0","1","1","","",""
"","psychophysics","45","162346","0.0-2.0-0.14","7t8","[""L""]","","","","","","1365","key","m","m","16.672365853658544","912","513","2","1","1","1","1","true","",""
"","psychophysics","46","163353","0.0-2.0-1.14","7t8","[""L""]","","","","","","null","key","null","null","16.67213333333299","912","513","2","1","1","1","1","","",""
"","psychophysics","47","164363","0.0-2.0-2.14-0.14","7t8","[""L""]","","","","","","null","key","null","null","16.671966101695048","912","513","2","1","1","1","1","","",""
"","psychophysics","48","167626","0.0-2.0-0.15","7t8","[""L""]","","","","","","2559","key","m","m","16.67213333333329","912","513","1","1","0","0","1","false","",""
"","psychophysics","49","168634","0.0-2.0-1.15","7t8","[""L""]","","","","","","null","key","null","null","16.672766666666334","912","513","1","1","0","0","1","","",""
"","psychophysics","50","169644","0.0-2.0-3.15-0.15","7t8","[""L""]","","","","","","null","key","null","null","16.67177966101711","912","513","1","1","0","0","1","","",""
"","psychophysics","51","173522","0.0-2.0-0.16","7t8","[""L""]","","","","","","3174","key","m","m","16.672081896551767","912","513","2","1","0","1","0","true","",""
"","psychophysics","52","174530","0.0-2.0-1.16","7t8","[""L""]","","","","","","null","key","null","null","16.671423728813583","912","513","2","1","0","1","0","","",""
"","psychophysics","53","175542","0.0-2.0-2.16-0.16","7t8","[""L""]","","","","","","null","key","null","null","16.672850000000228","912","513","2","1","0","1","0","","",""
"","psychophysics","54","177555","0.0-2.0-0.17","7t8","[""L""]","","","","","","1308","key","m","m","16.671850000000024","912","513","1","1","1","1","0","false","",""
"","psychophysics","55","178562","0.0-2.0-1.17","7t8","[""L""]","","","","","","null","key","null","null","16.671677966101957","912","513","1","1","1","1","0","","",""
"","psychophysics","56","179572","0.0-2.0-3.17-0.17","7t8","[""L""]","","","","","","null","key","null","null","16.67281666666677","912","513","1","1","1","1","0","","",""
"","psychophysics","57","181497","0.0-2.0-0.18","7t8","[""L""]","","","","","","1219","key","z","z","16.672350877192866","912","513","1","0","0","1","1","true","",""
"","psychophysics","58","182505","0.0-2.0-1.18","7t8","[""L""]","","","","","","null","key","null","null","16.672783333333307","912","513","1","0","0","1","1","","",""
"","psychophysics","59","183516","0.0-2.0-2.18-0.18","7t8","[""L""]","","","","","","null","key","null","null","16.671661016949102","912","513","1","0","0","1","1","","",""
"","psychophysics","60","187130","0.0-2.0-0.19","7t8","[""L""]","","","","","","2909","key","z","z","16.67189351851859","912","513","1","1","1","1","1","true","",""
"","psychophysics","61","188138","0.0-2.0-1.19","7t8","[""L""]","","","","","","null","key","null","null","16.67305084745749","912","513","1","1","1","1","1","","",""
"","psychophysics","62","189148","0.0-2.0-2.19-0.19","7t8","[""L""]","","","","","","null","key","null","null","16.671900000000218","912","513","1","1","1","1","1","","",""
"","psychophysics","63","191129","0.0-2.0-0.20","7t8","[""L""]","","","","","","1278","key","m","m","16.672194915254387","912","513","1","1","0","1","0","false","",""
"","psychophysics","64","192137","0.0-2.0-1.20","7t8","[""L""]","","","","","","null","key","null","null","16.67179661016947","912","513","1","1","0","1","0","","",""
"","psychophysics","65","193148","0.0-2.0-3.20-0.20","7t8","[""L""]","","","","","","null","key","null","null","16.67321666666685","912","513","1","1","0","1","0","","",""
"","psychophysics","66","195153","0.0-2.0-0.21","7t8","[""L""]","","","","","","1301","key","m","m","16.672378151260556","912","513","1","1","0","0","0","false","",""
"","psychophysics","67","196161","0.0-2.0-1.21","7t8","[""L""]","","","","","","null","key","null","null","16.67275000000033","912","513","1","1","0","0","0","","",""
"","psychophysics","68","197171","0.0-2.0-3.21-0.21","7t8","[""L""]","","","","","","null","key","null","null","16.67177966101711","912","513","1","1","0","0","0","","",""
"","psychophysics","69","198970","0.0-2.0-0.22","7t8","[""L""]","","","","","","1093","key","z","z","16.67251401869161","912","513","2","0","1","1","0","false","",""
"","psychophysics","70","199978","0.0-2.0-1.22","7t8","[""L""]","","","","","","null","key","null","null","16.67258333333351","912","513","2","0","1","1","0","","",""
"","psychophysics","71","200987","0.0-2.0-3.22-0.22","7t8","[""L""]","","","","","","null","key","null","null","16.671254237288494","912","513","2","0","1","1","0","","",""
"","psychophysics","72","202842","0.0-2.0-0.23","7t8","[""L""]","","","","","","1150","key","m","m","16.672381818181815","912","513","2","1","0","1","1","true","",""
"","psychophysics","73","203850","0.0-2.0-1.23","7t8","[""L""]","","","","","","null","key","null","null","16.672683333333406","912","513","2","1","0","1","1","","",""
"","psychophysics","74","204866","0.0-2.0-2.23-0.23","7t8","[""L""]","","","","","","null","key","null","null","16.672366666666736","912","513","2","1","0","1","1","","",""
"","psychophysics","75","206433","0.0-2.0-0.24","7t8","[""L""]","","","","","","863","key","z","z","16.671376344086276","912","513","2","0","0","0","1","false","",""
"","psychophysics","76","207441","0.0-2.0-1.24","7t8","[""L""]","","","","","","null","key","null","null","16.671762711864254","912","513","2","0","0","0","1","","",""
"","psychophysics","77","208451","0.0-2.0-3.24-0.24","7t8","[""L""]","","","","","","null","key","null","null","16.67286666666623","912","513","2","0","0","0","1","","",""
"","psychophysics","78","209842","0.0-2.0-0.25","7t8","[""L""]","","","","","","687","key","z","z","16.67268292682931","912","513","2","0","0","1","1","false","",""
"","psychophysics","79","210849","0.0-2.0-1.25","7t8","[""L""]","","","","","","null","key","null","null","16.67288333333369","912","513","2","0","0","1","1","","",""
"","psychophysics","80","211858","0.0-2.0-3.25-0.25","7t8","[""L""]","","","","","","null","key","null","null","16.67238983050851","912","513","2","0","0","1","1","","",""
"","psychophysics","81","213906","0.0-2.0-0.26","7t8","[""L""]","","","","","","1342","key","m","m","16.672450819672047","912","513","1","0","1","1","0","false","",""
"","psychophysics","82","214914","0.0-2.0-1.26","7t8","[""L""]","","","","","","null","key","null","null","16.67303389830513","912","513","1","0","1","1","0","","",""
"","psychophysics","83","215923","0.0-2.0-3.26-0.26","7t8","[""L""]","","","","","","null","key","null","null","16.672516666666585","912","513","1","0","1","1","0","","",""
"","psychophysics","84","218090","0.0-2.0-0.27","7t8","[""L""]","","","","","","1463","key","m","m","16.672356589147263","912","513","2","0","1","1","1","true","",""
"","psychophysics","85","219096","0.0-2.0-1.27","7t8","[""L""]","","","","","","null","key","null","null","16.67181355932232","912","513","2","0","1","1","1","","",""
"","psychophysics","86","220106","0.0-2.0-2.27-0.27","7t8","[""L""]","","","","","","null","key","null","null","16.672433333333174","912","513","2","0","1","1","1","","",""
"","psychophysics","87","221786","0.0-2.0-0.28","7t8","[""L""]","","","","","","975","key","z","z","16.672519999999786","912","513","1","0","0","1","1","true","",""
"","psychophysics","88","222795","0.0-2.0-1.28","7t8","[""L""]","","","","","","null","key","null","null","16.672728813559672","912","513","1","0","0","1","1","","",""
"","psychophysics","89","223804","0.0-2.0-2.28-0.28","7t8","[""L""]","","","","","","null","key","null","null","16.673250000000312","912","513","1","0","0","1","1","","",""
"","psychophysics","90","225458","0.0-2.0-0.29","7t8","[""L""]","","","","","","949","key","m","m","16.671765306122584","912","513","2","0","1","1","1","true","",""
"","psychophysics","91","226465","0.0-2.0-1.29","7t8","[""L""]","","","","","","null","key","null","null","16.671677966101463","912","513","2","0","1","1","1","","",""
"","psychophysics","92","227474","0.0-2.0-2.29-0.29","7t8","[""L""]","","","","","","null","key","null","null","16.67258333333351","912","513","2","0","1","1","1","","",""
"","psychophysics","93","229234","0.0-2.0-0.30","7t8","[""L""]","","","","","","1055","key","z","z","16.671846153846182","912","513","1","0","1","1","1","true","",""
"","psychophysics","94","230242","0.0-2.0-1.30","7t8","[""L""]","","","","","","null","key","null","null","16.67258333333351","912","513","1","0","1","1","1","","",""
"","psychophysics","95","231251","0.0-2.0-2.30-0.30","7t8","[""L""]","","","","","","null","key","null","null","16.67130508474607","912","513","1","0","1","1","1","","",""
"","psychophysics","96","232930","0.0-2.0-0.31","7t8","[""L""]","","","","","","975","key","m","m","16.671959999999963","912","513","1","0","0","1","0","false","",""
"","psychophysics","97","233938","0.0-2.0-1.31","7t8","[""L""]","","","","","","null","key","null","null","16.67273333333336","912","513","1","0","0","1","0","","",""
"","psychophysics","98","234946","0.0-2.0-3.31-0.31","7t8","[""L""]","","","","","","null","key","null","null","16.671694915254317","912","513","1","0","0","1","0","","",""
"","psychophysics","99","237882","0.0-2.0-0.32","7t8","[""L""]","","","","","","2231","key","z","z","16.67217142857129","912","513","1","1","1","1","1","true","",""
"","psychophysics","100","238889","0.0-2.0-1.32","7t8","[""L""]","","","","","","null","key","null","null","16.672766666666817","912","513","1","1","1","1","1","","",""
"","psychophysics","101","239898","0.0-2.0-2.32-0.32","7t8","[""L""]","","","","","","null","key","null","null","16.67132203389843","912","513","1","1","1","1","1","","",""
"","psychophysics","102","242275","0.0-2.0-0.33","7t8","[""L""]","","","","","","1673","key","m","m","16.67221126760562","912","513","2","0","0","1","1","true","",""
"","psychophysics","103","243282","0.0-2.0-1.33","7t8","[""L""]","","","","","","null","key","null","null","16.673338983050584","912","513","2","0","0","1","1","","",""
"","psychophysics","104","244293","0.0-2.0-2.33-0.33","7t8","[""L""]","","","","","","null","key","null","null","16.672500000000095","912","513","2","0","0","1","1","","",""
"","psychophysics","105","245722","0.0-2.0-0.34","7t8","[""L""]","","","","","","724","key","m","m","16.67163095238114","912","513","2","0","0","1","1","true","",""
"","psychophysics","106","246729","0.0-2.0-1.34","7t8","[""L""]","","","","","","null","key","null","null","16.672916666666666","912","513","2","0","0","1","1","","",""
"","psychophysics","107","247738","0.0-2.0-2.34-0.34","7t8","[""L""]","","","","","","null","key","null","null","16.671966101695048","912","513","2","0","0","1","1","","",""
"","psychophysics","108","249194","0.0-2.0-0.35","7t8","[""L""]","","","","","","752","key","m","m","16.672574712643627","912","513","1","0","0","0","1","false","",""
"","psychophysics","109","250201","0.0-2.0-1.35","7t8","[""L""]","","","","","","null","key","null","null","16.67172881355904","912","513","1","0","0","0","1","","",""
"","psychophysics","110","251211","0.0-2.0-3.35-0.35","7t8","[""L""]","","","","","","null","key","null","null","16.67440000000012","912","513","1","0","0","0","1","","",""
"","psychophysics","111","252674","0.0-2.0-0.36","7t8","[""L""]","","","","","","757","key","z","z","16.67247674418586","912","513","1","1","1","1","0","true","",""
"","psychophysics","112","253681","0.0-2.0-1.36","7t8","[""L""]","","","","","","null","key","null","null","16.67278333333379","912","513","1","1","1","1","0","","",""
"","psychophysics","113","254690","0.0-2.0-2.36-0.36","7t8","[""L""]","","","","","","null","key","null","null","16.671864406779896","912","513","1","1","1","1","0","","",""
"","psychophysics","114","256482","0.0-2.0-0.37","7t8","[""L""]","","","","","","1087","key","z","z","16.672308411215003","912","513","2","0","0","0","0","false","",""
"","psychophysics","115","257491","0.0-2.0-1.37","7t8","[""L""]","","","","","","null","key","null","null","16.671864406779406","912","513","2","0","0","0","0","","",""
"","psychophysics","116","258500","0.0-2.0-3.37-0.37","7t8","[""L""]","","","","","","null","key","null","null","16.67271666666687","912","513","2","0","0","0","0","","",""
"","psychophysics","117","259922","0.0-2.0-0.38","7t8","[""L""]","","","","","","719","key","z","z","16.672000000000047","912","513","1","0","0","1","1","true","",""
"","psychophysics","118","260930","0.0-2.0-1.38","7t8","[""L""]","","","","","","null","key","null","null","16.67173333333291","912","513","1","0","0","1","1","","",""
"","psychophysics","119","261941","0.0-2.0-2.38-0.38","7t8","[""L""]","","","","","","null","key","null","null","16.671610169491526","912","513","1","0","0","1","1","","",""
"","psychophysics","120","263418","0.0-2.0-0.39","7t8","[""L""]","","","","","","772","key","z","z","16.67238636363618","912","513","2","0","0","0","0","false","",""
"","psychophysics","121","264425","0.0-2.0-1.39","7t8","[""L""]","","","","","","null","key","null","null","16.671864406779896","912","513","2","0","0","0","0","","",""
"","psychophysics","122","265446","0.0-2.0-3.39-0.39","7t8","[""L""]","","","","","","null","key","null","null","16.67334999999924","912","513","2","0","0","0","0","","",""
"","psychophysics","123","266922","0.0-2.0-0.40","7t8","[""L""]","","","","","","771","key","m","m","16.671681818181902","912","513","2","0","0","1","1","true","",""
"","psychophysics","124","267931","0.0-2.0-1.40","7t8","[""L""]","","","","","","null","key","null","null","16.671949152542688","912","513","2","0","0","1","1","","",""
"","psychophysics","125","268941","0.0-2.0-2.40-0.40","7t8","[""L""]","","","","","","null","key","null","null","16.67204999999958","912","513","2","0","0","1","1","","",""
"","psychophysics","126","270458","0.0-2.0-0.41","7t8","[""L""]","","","","","","813","key","m","m","16.672388888889046","912","513","2","1","1","1","1","true","",""
"","psychophysics","127","271467","0.0-2.0-1.41","7t8","[""L""]","","","","","","null","key","null","null","16.672266666666836","912","513","2","1","1","1","1","","",""
"","psychophysics","128","272475","0.0-2.0-2.41-0.41","7t8","[""L""]","","","","","","null","key","null","null","16.672254237288143","912","513","2","1","1","1","1","","",""
"","psychophysics","129","274235","0.0-2.0-0.42","7t8","[""L""]","","","","","","1057","key","m","m","16.67238095238073","912","513","1","0","1","0","1","false","",""
"","psychophysics","130","275243","0.0-2.0-1.42","7t8","[""L""]","","","","","","null","key","null","null","16.672474576270808","912","513","1","0","1","0","1","","",""
"","psychophysics","131","276254","0.0-2.0-3.42-0.42","7t8","[""L""]","","","","","","null","key","null","null","16.672550000000047","912","513","1","0","1","0","1","","",""
"","psychophysics","132","278651","0.0-2.0-0.43","7t8","[""L""]","","","","","","1693","key","m","m","16.672112676056354","912","513","2","1","0","1","1","true","",""
"","psychophysics","133","279658","0.0-2.0-1.43","7t8","[""L""]","","","","","","null","key","null","null","16.67271666666687","912","513","2","1","0","1","1","","",""
"","psychophysics","134","280666","0.0-2.0-2.43-0.43","7t8","[""L""]","","","","","","null","key","null","null","16.671864406779896","912","513","2","1","0","1","1","","",""
"","psychophysics","135","283921","0.0-2.0-0.44","7t8","[""L""]","","","","","","2551","key","z","z","16.671441025640934","912","513","1","1","1","1","0","true","",""
"","psychophysics","136","284924","0.0-2.0-1.44","7t8","[""L""]","","","","","","null","key","null","null","16.67413559321993","912","513","1","1","1","1","0","","",""
"","psychophysics","137","285933","0.0-2.0-2.44-0.44","7t8","[""L""]","","","","","","null","key","null","null","16.671101694915766","912","513","1","1","1","1","0","","",""
"","psychophysics","138","287962","0.0-2.0-0.45","7t8","[""L""]","","","","","","1324","key","z","z","16.672371900826597","912","513","2","1","1","0","0","false","",""
"","psychophysics","139","288969","0.0-2.0-1.45","7t8","[""L""]","","","","","","null","key","null","null","16.67108474576242","912","513","2","1","1","0","0","","",""
"","psychophysics","140","289978","0.0-2.0-3.45-0.45","7t8","[""L""]","","","","","","null","key","null","null","16.672566666666533","912","513","2","1","1","0","0","","",""
"","psychophysics","141","293674","0.0-2.0-0.46","7t8","[""L""]","","","","","","2994","key","m","m","16.671832579185416","912","513","1","0","0","1","0","false","",""
"","psychophysics","142","294682","0.0-2.0-1.46","7t8","[""L""]","","","","","","null","key","null","null","16.672016949153118","912","513","1","0","0","1","0","","",""
"","psychophysics","143","295691","0.0-2.0-3.46-0.46","7t8","[""L""]","","","","","","null","key","null","null","16.67305000000051","912","513","1","0","0","1","0","","",""
"","psychophysics","144","297138","0.0-2.0-0.47","7t8","[""L""]","","","","","","743","key","z","z","16.672258823529326","912","513","2","1","0","0","1","false","",""
"","psychophysics","145","298146","0.0-2.0-1.47","7t8","[""L""]","","","","","","null","key","null","null","16.672833333333255","912","513","2","1","0","0","1","","",""
"","psychophysics","146","299154","0.0-2.0-3.47-0.47","7t8","[""L""]","","","","","","null","key","null","null","16.67181355932183","912","513","2","1","0","0","1","","",""
"","psychophysics","147","300162","0.0-2.0-0.48","7t8","[""L""]","","","","","","303","key","m","m","16.67281666666677","912","513","2","0","1","1","0","true","",""
"","psychophysics","148","301169","0.0-2.0-1.48","7t8","[""L""]","","","","","","null","key","null","null","16.671627118644874","912","513","2","0","1","1","0","","",""
"","psychophysics","149","302178","0.0-2.0-2.48-0.48","7t8","[""L""]","","","","","","null","key","null","null","16.67216666666694","912","513","2","0","1","1","0","","",""
"","psychophysics","150","305242","0.0-2.0-0.49","7t8","[""L""]","","","","","","2360","key","z","z","16.67165934065949","912","513","2","0","1","1","0","false","",""
"","psychophysics","151","306249","0.0-2.0-1.49","7t8","[""L""]","","","","","","null","key","null","null","16.671816666666807","912","513","2","0","1","1","0","","",""
"","psychophysics","152","307258","0.0-2.0-3.49-0.49","7t8","[""L""]","","","","","","null","key","null","null","16.671983050848397","912","513","2","0","1","1","0","","",""
"","psychophysics","153","309274","0.0-2.0-0.50","7t8","[""L""]","","","","","","1312","key","z","z","16.672333333333274","912","513","1","1","1","1","1","true","",""
"","psychophysics","154","310282","0.0-2.0-1.50","7t8","[""L""]","","","","","","null","key","null","null","16.672666666666434","912","513","1","1","1","1","1","","",""
"","psychophysics","155","311290","0.0-2.0-2.50-0.50","7t8","[""L""]","","","","","","null","key","null","null","16.671932203389343","912","513","1","1","1","1","1","","",""
"","psychophysics","156","312306","0.0-2.0-0.51","7t8","[""L""]","","","","","","312","key","m","m","16.67261666666697","912","513","2","0","1","0","1","true","",""
"","psychophysics","157","313314","0.0-2.0-1.51","7t8","[""L""]","","","","","","null","key","null","null","16.66546666666691","912","513","2","0","1","0","1","","",""
"","psychophysics","158","314322","0.0-2.0-2.51-0.51","7t8","[""L""]","","","","","","null","key","null","null","16.95906896551806","912","513","2","0","1","0","1","","",""
"","psychophysics","159","316618","0.0-2.0-0.52","7t8","[""L""]","","","","","","1591","key","m","m","16.672277372262872","912","513","2","0","0","1","1","true","",""
"","psychophysics","160","317625","0.0-2.0-1.52","7t8","[""L""]","","","","","","null","key","null","null","16.67189830508462","912","513","2","0","0","1","1","","",""
"","psychophysics","161","318634","0.0-2.0-2.52-0.52","7t8","[""L""]","","","","","","null","key","null","null","16.67278333333282","912","513","2","0","0","1","1","","",""
"","psychophysics","162","321033","0.0-2.0-0.53","7t8","[""L""]","","","","","","1696","key","m","m","16.67181118881131","912","513","2","0","0","1","1","true","",""
"","psychophysics","163","322040","0.0-2.0-1.53","7t8","[""L""]","","","","","","null","key","null","null","16.672389830508017","912","513","2","0","0","1","1","","",""
"","psychophysics","164","323049","0.0-2.0-2.53-0.53","7t8","[""L""]","","","","","","null","key","null","null","16.672999999999107","912","513","2","0","0","1","1","","",""
"","psychophysics","165","324865","0.0-2.0-0.54","7t8","[""L""]","","","","","","1112","key","m","m","16.671869158878092","912","513","1","0","1","1","1","false","",""
"","psychophysics","166","325872","0.0-2.0-1.54","7t8","[""L""]","","","","","","null","key","null","null","16.671750000000852","912","513","1","0","1","1","1","","",""
"","psychophysics","167","326881","0.0-2.0-3.54-0.54","7t8","[""L""]","","","","","","null","key","null","null","16.673169491525496","912","513","1","0","1","1","1","","",""
"","psychophysics","168","328819","0.0-2.0-0.55","7t8","[""L""]","","","","","","1233","key","m","m","16.67184482758628","912","513","2","0","1","0","1","true","",""
"","psychophysics","169","329826","0.0-2.0-1.55","7t8","[""L""]","","","","","","null","key","null","null","16.671762711864748","912","513","2","0","1","0","1","","",""
"","psychophysics","170","330836","0.0-2.0-2.55-0.55","7t8","[""L""]","","","","","","null","key","null","null","16.672933333333155","912","513","2","0","1","0","1","","",""
"","psychophysics","171","332849","0.0-2.0-0.56","7t8","[""L""]","","","","","","1308","key","m","m","16.671621848739576","912","513","1","1","1","1","0","false","",""
"","psychophysics","172","333857","0.0-2.0-1.56","7t8","[""L""]","","","","","","null","key","null","null","16.672283333333326","912","513","1","1","1","1","0","","",""
"","psychophysics","173","334865","0.0-2.0-3.56-0.56","7t8","[""L""]","","","","","","null","key","null","null","16.67272881355918","912","513","1","1","1","1","0","","",""
"","psychophysics","174","336713","0.0-2.0-0.57","7t8","[""L""]","","","","","","1144","key","z","z","16.672245454545322","912","513","1","1","1","1","1","true","",""
"","psychophysics","175","337721","0.0-2.0-1.57","7t8","[""L""]","","","","","","null","key","null","null","16.672683333332923","912","513","1","1","1","1","1","","",""
"","psychophysics","176","338731","0.0-2.0-2.57-0.57","7t8","[""L""]","","","","","","null","key","null","null","16.672576271186944","912","513","1","1","1","1","1","","",""
"","psychophysics","177","340401","0.0-2.0-0.58","7t8","[""L""]","","","","","","966","key","m","m","16.67179797979829","912","513","2","0","0","0","1","true","",""
"","psychophysics","178","341408","0.0-2.0-1.58","7t8","[""L""]","","","","","","null","key","null","null","16.67335000000021","912","513","2","0","0","0","1","","",""
"","psychophysics","179","342417","0.0-2.0-2.58-0.58","7t8","[""L""]","","","","","","null","key","null","null","16.670949152542548","912","513","2","0","0","0","1","","",""
"","psychophysics","180","344089","0.0-2.0-0.59","7t8","[""L""]","","","","","","968","key","z","z","16.672459999999845","912","513","1","1","1","1","1","true","",""
"","psychophysics","181","345097","0.0-2.0-1.59","7t8","[""L""]","","","","","","null","key","null","null","16.672288135592865","912","513","1","1","1","1","1","","",""
"","psychophysics","182","346107","0.0-2.0-2.59-0.59","7t8","[""L""]","","","","","","null","key","null","null","16.67169999999945","912","513","1","1","1","1","1","","",""
"","psychophysics","183","347929","0.0-2.0-0.60","7t8","[""L""]","","","","","","1118","key","m","m","16.672074074074366","912","513","1","0","1","0","0","false","",""
"","psychophysics","184","348938","0.0-2.0-1.60","7t8","[""L""]","","","","","","null","key","null","null","16.67266101694875","912","513","1","0","1","0","0","","",""
"","psychophysics","185","349947","0.0-2.0-3.60-0.60","7t8","[""L""]","","","","","","null","key","null","null","16.671800000000317","912","513","1","0","1","0","0","","",""
"","psychophysics","186","352661","0.0-2.0-0.61","7t8","[""L""]","","","","","","2010","key","m","m","16.67186419753089","912","513","2","1","0","1","1","true","",""
"","psychophysics","187","353670","0.0-2.0-1.61","7t8","[""L""]","","","","","","null","key","null","null","16.671525423728735","912","513","2","1","0","1","1","","",""
"","psychophysics","188","354680","0.0-2.0-2.61-0.61","7t8","[""L""]","","","","","","null","key","null","null","16.672566666666533","912","513","2","1","0","1","1","","",""
"","psychophysics","189","356801","0.0-2.0-0.62","7t8","[""L""]","","","","","","1417","key","z","z","16.671849206349137","912","513","2","0","1","1","0","false","",""
"","psychophysics","190","357810","0.0-2.0-1.62","7t8","[""L""]","","","","","","null","key","null","null","16.67278333333379","912","513","2","0","1","1","0","","",""
"","psychophysics","191","358819","0.0-2.0-3.62-0.62","7t8","[""L""]","","","","","","null","key","null","null","16.671932203390327","912","513","2","0","1","1","0","","",""
"","psychophysics","192","360785","0.0-2.0-0.63","7t8","[""L""]","","","","","","1263","key","m","m","16.672324786324882","912","513","2","0","0","1","1","true","",""
"","psychophysics","193","361792","0.0-2.0-1.63","7t8","[""L""]","","","","","","null","key","null","null","16.672525423728878","912","513","2","0","0","1","1","","",""
"","psychophysics","194","362802","0.0-2.0-2.63-0.63","7t8","[""L""]","","","","","","null","key","null","null","16.670616666667048","912","513","2","0","0","1","1","","",""
"","psychophysics","195","364449","0.0-2.0-0.64","7t8","[""L""]","","","","","","943","key","m","m","16.672285714285323","912","513","2","1","0","1","1","true","",""
"","psychophysics","196","365457","0.0-2.0-1.64","7t8","[""L""]","","","","","","null","key","null","null","16.671915254236982","912","513","2","1","0","1","1","","",""
"","psychophysics","197","366468","0.0-2.0-2.64-0.64","7t8","[""L""]","","","","","","null","key","null","null","16.67196666666617","912","513","2","1","0","1","1","","",""
"","psychophysics","198","367905","0.0-2.0-0.65","7t8","[""L""]","","","","","","734","key","z","z","16.6718352941173","912","513","1","1","0","1","1","true","",""
"","psychophysics","199","368913","0.0-2.0-1.65","7t8","[""L""]","","","","","","null","key","null","null","16.672833333333255","912","513","1","1","0","1","1","","",""
"","psychophysics","200","369923","0.0-2.0-2.65-0.65","7t8","[""L""]","","","","","","null","key","null","null","16.67181355932183","912","513","1","1","0","1","1","","",""
"","psychophysics","201","371569","0.0-2.0-0.66","7t8","[""L""]","","","","","","941","key","m","m","16.672408163265388","912","513","2","1","1","1","0","true","",""
"","psychophysics","202","372577","0.0-2.0-1.66","7t8","[""L""]","","","","","","null","key","null","null","16.671677966101957","912","513","2","1","1","1","0","","",""
"","psychophysics","203","373588","0.0-2.0-2.66-0.66","7t8","[""L""]","","","","","","null","key","null","null","16.67298333333359","912","513","2","1","1","1","0","","",""
"","psychophysics","204","376177","0.0-2.0-0.67","7t8","[""L""]","","","","","","1886","key","z","z","16.67201948051973","912","513","1","1","0","1","0","true","",""
"","psychophysics","205","377188","0.0-2.0-1.67","7t8","[""L""]","","","","","","null","key","null","null","16.672350000000247","912","513","1","1","0","1","0","","",""
"","psychophysics","206","378197","0.0-2.0-2.67-0.67","7t8","[""L""]","","","","","","null","key","null","null","16.67205084745784","912","513","1","1","0","1","0","","",""
"","psychophysics","207","380874","0.0-2.0-0.68","7t8","[""L""]","","","","","","1973","key","m","m","16.672149999999966","912","513","2","0","0","1","1","true","",""
"","psychophysics","208","381881","0.0-2.0-1.68","7t8","[""L""]","","","","","","null","key","null","null","16.671881355932257","912","513","2","0","0","1","1","","",""
"","psychophysics","209","382890","0.0-2.0-2.68-0.68","7t8","[""L""]","","","","","","null","key","null","null","16.67280000000028","912","513","2","0","0","1","1","","",""
"","psychophysics","210","384754","0.0-2.0-0.69","7t8","[""L""]","","","","","","1161","key","m","m","16.671747747747865","912","513","1","1","1","1","0","false","",""
"","psychophysics","211","385762","0.0-2.0-1.69","7t8","[""L""]","","","","","","null","key","null","null","16.67184745762655","912","513","1","1","1","1","0","","",""
"","psychophysics","212","386772","0.0-2.0-3.69-0.69","7t8","[""L""]","","","","","","null","key","null","null","16.67298333333359","912","513","1","1","1","1","0","","",""
"","psychophysics","213","389388","0.0-2.0-0.70","7t8","[""L""]","","","","","","1911","key","m","m","16.671352564102374","912","513","1","0","0","0","1","false","",""
"","psychophysics","214","390395","0.0-2.0-1.70","7t8","[""L""]","","","","","","null","key","null","null","16.67127118644036","912","513","1","0","0","0","1","","",""
"","psychophysics","215","391404","0.0-2.0-3.70-0.70","7t8","[""L""]","","","","","","null","key","null","null","16.67280000000028","912","513","1","0","0","0","1","","",""
"","psychophysics","216","393739","0.0-2.0-0.71","7t8","[""L""]","","","","","","1631","key","z","z","16.67178417266164","912","513","1","0","1","0","1","true","",""
"","psychophysics","217","394747","0.0-2.0-1.71","7t8","[""L""]","","","","","","null","key","null","null","16.673186440677856","912","513","1","0","1","0","1","","",""
"","psychophysics","218","395756","0.0-2.0-2.71-0.71","7t8","[""L""]","","","","","","null","key","null","null","16.672683333333893","912","513","1","0","1","0","1","","",""
"","psychophysics","219","397724","0.0-2.0-0.72","7t8","[""L""]","","","","","","1264","key","z","z","16.671803418803627","912","513","1","0","0","0","1","true","",""
"","psychophysics","220","398730","0.0-2.0-1.72","7t8","[""L""]","","","","","","null","key","null","null","16.671694915254317","912","513","1","0","0","0","1","","",""
"","psychophysics","221","399740","0.0-2.0-2.72-0.72","7t8","[""L""]","","","","","","null","key","null","null","16.67288333333272","912","513","1","0","0","0","1","","",""
"","psychophysics","222","402786","0.0-2.0-0.73","7t8","[""L""]","","","","","","2342","key","z","z","16.671640883977794","912","513","2","0","0","0","0","false","",""
"","psychophysics","223","403794","0.0-2.0-1.73","7t8","[""L""]","","","","","","null","key","null","null","16.67273333333336","912","513","2","0","0","0","0","","",""
"","psychophysics","224","404803","0.0-2.0-3.73-0.73","7t8","[""L""]","","","","","","null","key","null","null","16.6725593220336","912","513","2","0","0","0","0","","",""
"","psychophysics","225","406443","0.0-2.0-0.74","7t8","[""L""]","","","","","","936","key","z","z","16.671775510203812","912","513","1","1","0","1","1","true","",""
"","psychophysics","226","407450","0.0-2.0-1.74","7t8","[""L""]","","","","","","null","key","null","null","16.673186440677856","912","513","1","1","0","1","1","","",""
"","psychophysics","227","408467","0.0-2.0-2.74-0.74","7t8","[""L""]","","","","","","null","key","null","null","16.647566666666535","912","513","1","1","0","1","1","","",""
"","psychophysics","228","411962","0.0-2.0-0.75","7t8","[""L""]","","","","","","2791","key","m","m","16.672057416268043","912","513","2","0","0","1","0","true","",""
"","psychophysics","229","412969","0.0-2.0-1.75","7t8","[""L""]","","","","","","null","key","null","null","16.671186440678557","912","513","2","0","0","1","0","","",""
"","psychophysics","230","413979","0.0-2.0-2.75-0.75","7t8","[""L""]","","","","","","null","key","null","null","16.67288333333369","912","513","2","0","0","1","0","","",""
"","psychophysics","231","415770","0.0-2.0-0.76","7t8","[""L""]","","","","","","1088","key","m","m","16.671971698113133","912","513","1","1","0","1","0","false","",""
"","psychophysics","232","416779","0.0-2.0-1.76","7t8","[""L""]","","","","","","null","key","null","null","16.672283333333326","912","513","1","1","0","1","0","","",""
"","psychophysics","233","417787","0.0-2.0-3.76-0.76","7t8","[""L""]","","","","","","null","key","null","null","16.672525423728878","912","513","1","1","0","1","0","","",""
"","psychophysics","234","419570","0.0-2.0-0.77","7t8","[""L""]","","","","","","1079","key","z","z","16.67240566037703","912","513","1","0","0","0","1","true","",""
"","psychophysics","235","420578","0.0-2.0-1.77","7t8","[""L""]","","","","","","null","key","null","null","16.671644067796247","912","513","1","0","0","0","1","","",""
"","psychophysics","236","421587","0.0-2.0-2.77-0.77","7t8","[""L""]","","","","","","null","key","null","null","16.67178333333286","912","513","1","0","0","0","1","","",""
"","psychophysics","237","423946","0.0-2.0-0.78","7t8","[""L""]","","","","","","1655","key","m","m","16.672257142857","912","513","2","0","0","0","1","true","",""
"","psychophysics","238","424954","0.0-2.0-1.78","7t8","[""L""]","","","","","","null","key","null","null","16.67213333333299","912","513","2","0","0","0","1","","",""
"","psychophysics","239","425963","0.0-2.0-2.78-0.78","7t8","[""L""]","","","","","","null","key","null","null","16.672762711864888","912","513","2","0","0","0","1","","",""
"","psychophysics","240","428274","0.0-2.0-0.79","7t8","[""L""]","","","","","","1607","key","z","z","16.671869565217342","912","513","1","1","1","1","1","true","",""
"","psychophysics","241","429283","0.0-2.0-1.79","7t8","[""L""]","","","","","","null","key","null","null","16.67224999999938","912","513","1","1","1","1","1","","",""
"","psychophysics","242","430291","0.0-2.0-2.79-0.79","7t8","[""L""]","","","","","","null","key","null","null","16.67249152542317","912","513","1","1","1","1","1","","",""
"","psychophysics","243","432338","0.0-2.0-0.80","7t8","[""L""]","","","","","","1342","key","z","z","16.672270491803694","912","513","2","0","0","0","0","false","",""
"","psychophysics","244","433347","0.0-2.0-1.80","7t8","[""L""]","","","","","","null","key","null","null","16.67103389830534","912","513","2","0","0","0","0","","",""
"","psychophysics","245","434356","0.0-2.0-3.80-0.80","7t8","[""L""]","","","","","","null","key","null","null","16.672283333333326","912","513","2","0","0","0","0","","",""
"","psychophysics","246","436186","0.0-2.0-0.81","7t8","[""L""]","","","","","","1126","key","z","z","16.67153211009161","912","513","1","1","0","1","1","true","",""
"","psychophysics","247","437194","0.0-2.0-1.81","7t8","[""L""]","","","","","","null","key","null","null","16.67249152542317","912","513","1","1","0","1","1","","",""
"","psychophysics","248","438205","0.0-2.0-2.81-0.81","7t8","[""L""]","","","","","","null","key","null","null","16.671949999999683","912","513","1","1","0","1","1","","",""
"","psychophysics","249","441930","0.0-2.0-0.82","7t8","[""L""]","","","","","","3021","key","z","z","16.67199549549532","912","513","2","0","0","1","0","false","",""
"","psychophysics","250","442938","0.0-2.0-1.82","7t8","[""L""]","","","","","","null","key","null","null","16.67408333333345","912","513","2","0","0","1","0","","",""
"","psychophysics","251","443948","0.0-2.0-3.82-0.82","7t8","[""L""]","","","","","","null","key","null","null","16.671847457627536","912","513","2","0","0","1","0","","",""
"","psychophysics","252","447156","0.0-2.0-0.83","7t8","[""L""]","","","","","","2501","key","m","m","16.672177083333434","912","513","1","1","1","0","0","false","",""
"","psychophysics","253","448163","0.0-2.0-1.83","7t8","[""L""]","","","","","","null","key","null","null","16.671711864406678","912","513","1","1","1","0","0","","",""
"","psychophysics","254","449173","0.0-2.0-3.83-0.83","7t8","[""L""]","","","","","","null","key","null","null","16.67273333333336","912","513","1","1","1","0","0","","",""
"","psychophysics","255","451441","0.0-2.0-0.84","7t8","[""L""]","","","","","","1565","key","m","m","16.67189629629634","912","513","1","0","1","1","1","false","",""
"","psychophysics","256","452449","0.0-2.0-1.84","7t8","[""L""]","","","","","","null","key","null","null","16.671932203390327","912","513","1","0","1","1","1","","",""
"","psychophysics","257","453458","0.0-2.0-3.84-0.84","7t8","[""L""]","","","","","","null","key","null","null","16.672933333333155","912","513","1","0","1","1","1","","",""
"","psychophysics","258","455314","0.0-2.0-0.85","7t8","[""L""]","","","","","","1152","key","m","m","16.67169999999989","912","513","2","1","0","1","1","true","",""
"","psychophysics","259","456323","0.0-2.0-1.85","7t8","[""L""]","","","","","","null","key","null","null","16.671728813560023","912","513","2","1","0","1","1","","",""
"","psychophysics","260","457332","0.0-2.0-2.85-0.85","7t8","[""L""]","","","","","","null","key","null","null","16.671566666666575","912","513","2","1","0","1","1","","",""
"","psychophysics","261","459346","0.0-2.0-0.86","7t8","[""L""]","","","","","","1310","key","z","z","16.672266666666836","912","513","1","0","1","1","1","true","",""
"","psychophysics","262","460354","0.0-2.0-1.86","7t8","[""L""]","","","","","","null","key","null","null","16.671711864406678","912","513","1","0","1","1","1","","",""
"","psychophysics","263","461363","0.0-2.0-2.86-0.86","7t8","[""L""]","","","","","","null","key","null","null","16.6728666666672","912","513","1","0","1","1","1","","",""
"","psychophysics","264","463402","0.0-2.0-0.87","7t8","[""L""]","","","","","","1334","key","m","m","16.671892561983462","912","513","2","0","1","1","1","true","",""
"","psychophysics","265","464413","0.0-2.0-1.87","7t8","[""L""]","","","","","","null","key","null","null","16.672666666666434","912","513","2","0","1","1","1","","",""
"","psychophysics","266","465423","0.0-2.0-2.87-0.87","7t8","[""L""]","","","","","","null","key","null","null","16.671711864406678","912","513","2","0","1","1","1","","",""
"","psychophysics","267","467282","0.0-2.0-0.88","7t8","[""L""]","","","","","","1154","key","z","z","16.67245945945982","912","513","2","0","0","0","0","false","",""
"","psychophysics","268","468289","0.0-2.0-1.88","7t8","[""L""]","","","","","","null","key","null","null","16.67179661016947","912","513","2","0","0","0","0","","",""
"","psychophysics","269","469299","0.0-2.0-3.88-0.88","7t8","[""L""]","","","","","","null","key","null","null","16.672383333333226","912","513","2","0","0","0","0","","",""
"","psychophysics","270","470810","0.0-2.0-0.89","7t8","[""L""]","","","","","","807","key","m","m","16.671764044943945","912","513","2","1","0","1","0","true","",""
"","psychophysics","271","471818","0.0-2.0-1.89","7t8","[""L""]","","","","","","null","key","null","null","16.67271666666687","912","513","2","1","0","1","0","","",""
"","psychophysics","272","472828","0.0-2.0-2.89-0.89","7t8","[""L""]","","","","","","null","key","null","null","16.67286440678004","912","513","2","1","0","1","0","","",""
"","psychophysics","273","474506","0.0-2.0-0.90","7t8","[""L""]","","","","","","973","key","m","m","16.670470000000204","912","513","1","1","0","1","0","false","",""
"","psychophysics","274","475514","0.0-2.0-1.90","7t8","[""L""]","","","","","","null","key","null","null","16.672550000000047","912","513","1","1","0","1","0","","",""
"","psychophysics","275","476522","0.0-2.0-3.90-0.90","7t8","[""L""]","","","","","","null","key","null","null","16.959275862069575","912","513","1","1","0","1","0","","",""
"","psychophysics","276","478116","0.0-2.0-0.91","7t8","[""L""]","","","","","","889","key","m","m","16.67247368421001","912","513","2","1","1","1","1","true","",""
"","psychophysics","277","479123","0.0-2.0-1.91","7t8","[""L""]","","","","","","null","key","null","null","16.672999999999913","912","513","2","1","1","1","1","","",""
"","psychophysics","278","480134","0.0-2.0-2.91-0.91","7t8","[""L""]","","","","","","null","key","null","null","16.672450000000147","912","513","2","1","1","1","1","","",""
"","psychophysics","279","481834","0.0-2.0-0.92","7t8","[""L""]","","","","","","996","key","m","m","16.67183168316871","912","513","2","1","0","0","1","true","",""
"","psychophysics","280","482841","0.0-2.0-1.92","7t8","[""L""]","","","","","","null","key","null","null","16.671762711864748","912","513","2","1","0","0","1","","",""
"","psychophysics","281","483850","0.0-2.0-2.92-0.92","7t8","[""L""]","","","","","","null","key","null","null","16.955389830508757","912","513","2","1","0","0","1","","",""
"","psychophysics","282","485651","0.0-2.0-0.93","7t8","[""L""]","","","","","","1098","key","z","z","16.671934579439228","912","513","1","0","1","0","1","true","",""
"","psychophysics","283","486658","0.0-2.0-1.93","7t8","[""L""]","","","","","","null","key","null","null","16.671762711864748","912","513","1","0","1","0","1","","",""
"","psychophysics","284","487669","0.0-2.0-2.93-0.93","7t8","[""L""]","","","","","","null","key","null","null","16.67269999999941","912","513","1","0","1","0","1","","",""
"","psychophysics","285","489658","0.0-2.0-0.94","7t8","[""L""]","","","","","","1285","key","z","z","16.671881355932257","912","513","1","1","0","1","0","true","",""
"","psychophysics","286","490666","0.0-2.0-1.94","7t8","[""L""]","","","","","","null","key","null","null","16.67254237288124","912","513","1","1","0","1","0","","",""
"","psychophysics","287","491677","0.0-2.0-2.94-0.94","7t8","[""L""]","","","","","","null","key","null","null","16.672666666666434","912","513","1","1","0","1","0","","",""
"","psychophysics","288","493874","0.0-2.0-0.95","7t8","[""L""]","","","","","","1493","key","m","m","16.671916030534412","912","513","1","0","1","1","0","false","",""
"","psychophysics","289","494881","0.0-2.0-1.95","7t8","[""L""]","","","","","","null","key","null","null","16.671406779661222","912","513","1","0","1","1","0","","",""
"","psychophysics","290","495891","0.0-2.0-3.95-0.95","7t8","[""L""]","","","","","","null","key","null","null","16.67294999999964","912","513","1","0","1","1","0","","",""
"","psychophysics","291","498650","0.0-2.0-0.96","7t8","[""L""]","","","","","","2055","key","m","m","16.671865853658456","912","513","1","1","0","0","1","false","",""
"","psychophysics","292","499657","0.0-2.0-1.96","7t8","[""L""]","","","","","","null","key","null","null","16.672933333333155","912","513","1","1","0","0","1","","",""
"","psychophysics","293","500666","0.0-2.0-3.96-0.96","7t8","[""L""]","","","","","","null","key","null","null","16.67177966101612","912","513","1","1","0","0","1","","",""
"","psychophysics","294","503586","0.0-2.0-0.97","7t8","[""L""]","","","","","","2214","key","m","m","16.67216091954026","912","513","2","0","1","1","0","true","",""
"","psychophysics","295","504594","0.0-2.0-1.97","7t8","[""L""]","","","","","","null","key","null","null","16.953033898304952","912","513","2","0","1","1","0","","",""
"","psychophysics","296","505604","0.0-2.0-2.97-0.97","7t8","[""L""]","","","","","","null","key","null","null","16.67133898305079","912","513","2","0","1","1","0","","",""
"","psychophysics","297","509209","0.0-2.0-0.98","7t8","[""L""]","","","","","","2900","key","z","z","16.67186111111099","912","513","1","0","1","1","1","true","",""
"","psychophysics","298","510217","0.0-2.0-1.98","7t8","[""L""]","","","","","","null","key","null","null","16.67201694915213","912","513","1","0","1","1","1","","",""
"","psychophysics","299","511228","0.0-2.0-2.98-0.98","7t8","[""L""]","","","","","","null","key","null","null","16.67298333333359","912","513","1","0","1","1","1","","",""
"","psychophysics","300","513529","0.0-2.0-0.99","7t8","[""L""]","","","","","","1597","key","m","m","16.671313868612934","912","513","1","0","1","0","1","false","",""
"","psychophysics","301","514537","0.0-2.0-1.99","7t8","[""L""]","","","","","","null","key","null","null","16.67284745762669","912","513","1","0","1","0","1","","",""
"","psychophysics","302","515547","0.0-2.0-3.99-0.99","7t8","[""L""]","","","","","","null","key","null","null","16.6724166666662","912","513","1","0","1","0","1","","",""
"","html-keyboard-response","303","524418","0.0-2.0-4.99-0.99","7t8","[""L""]","","","","","","8866","","","g","","","","","","","","","","<p>You have finished block 1 of 5.<p>You correctly predicted 59% of the races.<p>On the next screen, you will be given a 30 second break. Press the <b>g</b> key to start your break.",""
"","html-keyboard-response","304","525429","0.0-2.0-4.99-1.99-0.99","7t8","[""L""]","","","","","","null","","","null","","","","","","","","","","<p>The experiment will resume in 30 seconds. ",""
"","html-keyboard-response","305","526443","0.0-2.0-4.99-1.99-1.99","7t8","[""L""]","","","","","","null","","","null","","","","","","","","","","<p>The experiment will resume in 29 seconds. ",""
"","html-keyboard-response","306","527453","0.0-2.0-4.99-1.99-2.99","7t8","[""L""]","","","","","","null","","","null","","","","","","","","","","<p>The experiment will resume in 28 seconds. ",""
"","html-keyboard-response","307","528459","0.0-2.0-4.99-1.99-3.99","7t8","[""L""]","","","","","","null","","","null","","","","","","","","","","<p>The experiment will resume in 27 seconds. ",""
"","html-keyboard-response","308","529471","0.0-2.0-4.99-1.99-4.99","7t8","[""L""]","","","","","","null","","","null","","","","","","","","","","<p>The experiment will resume in 26 seconds. ",""
"","html-keyboard-response","309","530486","0.0-2.0-4.99-1.99-5.99","7t8","[""L""]","","","","","","null","","","null","","","","","","","","","","<p>The experiment will resume in 25 seconds. ",""
"","html-keyboard-response","310","531502","0.0-2.0-4.99-1.99-6.99","7t8","[""L""]","","","","","","null","","","null","","","","","","","","","","<p>The experiment will resume in 24 seconds. ",""
"","html-keyboard-response","311","532518","0.0-2.0-4.99-1.99-7.99","7t8","[""L""]","","","","","","null","","","null","","","","","","","","","","<p>The experiment will resume in 23 seconds. ",""
"","html-keyboard-response","312","533534","0.0-2.0-4.99-1.99-8.99","7t8","[""L""]","","","","","","null","","","null","","","","","","","","","","<p>The experiment will resume in 22 seconds. ",""
"","html-keyboard-response","313","534539","0.0-2.0-4.99-1.99-9.99","7t8","[""L""]","","","","","","null","","","null","","","","","","","","","","<p>The experiment will resume in 21 seconds. ",""
"","html-keyboard-response","314","535542","0.0-2.0-4.99-1.99-10.99","7t8","[""L""]","","","","","","null","","","null","","","","","","","","","","<p>The experiment will resume in 20 seconds. ",""
"","html-keyboard-response","315","536546","0.0-2.0-4.99-1.99-11.99","7t8","[""L""]","","","","","","null","","","null","","","","","","","","","","<p>The experiment will resume in 19 seconds. ",""
"","html-keyboard-response","316","537554","0.0-2.0-4.99-1.99-12.99","7t8","[""L""]","","","","","","null","","","null","","","","","","","","","","<p>The experiment will resume in 18 seconds. ",""
"","html-keyboard-response","317","538564","0.0-2.0-4.99-1.99-13.99","7t8","[""L""]","","","","","","null","","","null","","","","","","","","","","<p>The experiment will resume in 17 seconds. ",""
"","html-keyboard-response","318","539567","0.0-2.0-4.99-1.99-14.99","7t8","[""L""]","","","","","","null","","","null","","","","","","","","","","<p>The experiment will resume in 16 seconds. ",""
"","html-keyboard-response","319","540582","0.0-2.0-4.99-1.99-15.99","7t8","[""L""]","","","","","","null","","","null","","","","","","","","","","<p>The experiment will resume in 15 seconds. ",""
"","html-keyboard-response","320","541598","0.0-2.0-4.99-1.99-16.99","7t8","[""L""]","","","","","","null","","","null","","","","","","","","","","<p>The experiment will resume in 14 seconds. ",""
"","html-keyboard-response","321","542605","0.0-2.0-4.99-1.99-17.99","7t8","[""L""]","","","","","","null","","","null","","","","","","","","","","<p>The experiment will resume in 13 seconds. ",""
"","html-keyboard-response","322","543615","0.0-2.0-4.99-1.99-18.99","7t8","[""L""]","","","","","","null","","","null","","","","","","","","","","<p>The experiment will resume in 12 seconds. ",""
"","html-keyboard-response","323","544627","0.0-2.0-4.99-1.99-19.99","7t8","[""L""]","","","","","","null","","","null","","","","","","","","","","<p>The experiment will resume in 11 seconds. ",""
"","html-keyboard-response","324","545636","0.0-2.0-4.99-1.99-20.99","7t8","[""L""]","","","","","","null","","","null","","","","","","","","","","<p>The experiment will resume in 10 seconds. ",""
"","html-keyboard-response","325","546646","0.0-2.0-4.99-1.99-21.99","7t8","[""L""]","","","","","","null","","","null","","","","","","","","","","<p>The experiment will resume in 9 seconds. ",""
"","html-keyboard-response","326","547659","0.0-2.0-4.99-1.99-22.99","7t8","[""L""]","","","","","","null","","","null","","","","","","","","","","<p>The experiment will resume in 8 seconds. ",""
"","html-keyboard-response","327","548675","0.0-2.0-4.99-1.99-23.99","7t8","[""L""]","","","","","","null","","","null","","","","","","","","","","<p>The experiment will resume in 7 seconds. ",""
"","html-keyboard-response","328","549684","0.0-2.0-4.99-1.99-24.99","7t8","[""L""]","","","","","","null","","","null","","","","","","","","","","<p>The experiment will resume in 6 seconds. ",""
"","html-keyboard-response","329","550687","0.0-2.0-4.99-1.99-25.99","7t8","[""L""]","","","","","","null","","","null","","","","","","","","","","<p>The experiment will resume in 5 seconds. ",""
"","html-keyboard-response","330","551703","0.0-2.0-4.99-1.99-26.99","7t8","[""L""]","","","","","","null","","","null","","","","","","","","","","<p>The experiment will resume in 4 seconds. ",""
"","html-keyboard-response","331","552714","0.0-2.0-4.99-1.99-27.99","7t8","[""L""]","","","","","","null","","","null","","","","","","","","","","<p>The experiment will resume in 3 seconds. ",""
"","html-keyboard-response","332","553724","0.0-2.0-4.99-1.99-28.99","7t8","[""L""]","","","","","","null","","","null","","","","","","","","","","<p>The experiment will resume in 2 seconds. ",""
"","html-keyboard-response","333","554730","0.0-2.0-4.99-1.99-29.99","7t8","[""L""]","","","","","","null","","","null","","","","","","","","","","<p>The experiment will resume in 1 seconds. ",""
"","psychophysics","334","557907","0.0-2.0-0.100","7t8","[""L""]","","","","","","2473","key","m","m","16.673539267015443","912","513","2","1","0","1","1","true","",""
"","psychophysics","335","558914","0.0-2.0-1.100","7t8","[""L""]","","","","","","null","key","null","null","16.67220338982909","912","513","2","1","0","1","1","","",""
"","psychophysics","336","559923","0.0-2.0-2.100-0.100","7t8","[""L""]","","","","","","null","key","null","null","16.674600000000403","912","513","2","1","0","1","1","","",""
"","psychophysics","337","561545","0.0-2.0-0.101","7t8","[""L""]","","","","","","917","key","m","m","16.67191666666622","912","513","2","1","0","0","1","true","",""
"","psychophysics","338","562553","0.0-2.0-1.101","7t8","[""L""]","","","","","","null","key","null","null","16.67203389830548","912","513","2","1","0","0","1","","",""
"","psychophysics","339","563564","0.0-2.0-2.101-0.101","7t8","[""L""]","","","","","","null","key","null","null","16.672916666666666","912","513","2","1","0","0","1","","",""
"","psychophysics","340","565129","0.0-2.0-0.102","7t8","[""L""]","","","","","","862","key","m","m","16.672182795699307","912","513","2","0","1","1","1","true","",""
"","psychophysics","341","566136","0.0-2.0-1.102","7t8","[""L""]","","","","","","null","key","null","null","16.67177966101711","912","513","2","0","1","1","1","","",""
"","psychophysics","342","567146","0.0-2.0-2.102-0.102","7t8","[""L""]","","","","","","null","key","null","null","16.672749999999844","912","513","2","0","1","1","1","","",""
"","psychophysics","343","568618","0.0-2.0-0.103","7t8","[""L""]","","","","","","767","key","z","z","16.672333333332187","912","513","2","0","0","1","0","false","",""
"","psychophysics","344","569624","0.0-2.0-1.103","7t8","[""L""]","","","","","","null","key","null","null","16.672864406778068","912","513","2","0","0","1","0","","",""
"","psychophysics","345","570634","0.0-2.0-3.103-0.103","7t8","[""L""]","","","","","","null","key","null","null","16.671316666668282","912","513","2","0","0","1","0","","",""
"","psychophysics","346","572611","0.0-2.0-0.104","7t8","[""L""]","","","","","","1274","key","m","m","16.672338983050935","912","513","2","1","0","1","1","true","",""
"","psychophysics","347","573618","0.0-2.0-1.104","7t8","[""L""]","","","","","","null","key","null","null","16.670559322033313","912","513","2","1","0","1","1","","",""
"","psychophysics","348","574628","0.0-2.0-2.104-0.104","7t8","[""L""]","","","","","","null","key","null","null","16.673166666666898","912","513","2","1","0","1","1","","",""
"","psychophysics","349","576241","0.0-2.0-0.105","7t8","[""L""]","","","","","","910","key","m","m","16.67172631578961","912","513","2","0","1","0","1","true","",""
"","psychophysics","350","577249","0.0-2.0-1.105","7t8","[""L""]","","","","","","null","key","null","null","16.672033333334063","912","513","2","0","1","0","1","","",""
"","psychophysics","351","578258","0.0-2.0-2.105-0.105","7t8","[""L""]","","","","","","null","key","null","null","16.66927118644205","912","513","2","0","1","0","1","","",""
"","psychophysics","352","579865","0.0-2.0-0.106","7t8","[""L""]","","","","","","906","key","m","m","16.675999999999476","912","513","2","0","0","1","1","true","",""
"","psychophysics","353","580872","0.0-2.0-1.106","7t8","[""L""]","","","","","","null","key","null","null","16.67242372881274","912","513","2","0","0","1","1","","",""
"","psychophysics","354","581883","0.0-2.0-2.106-0.106","7t8","[""L""]","","","","","","null","key","null","null","16.67286666666623","912","513","2","0","0","1","1","","",""
"","psychophysics","355","583514","0.0-2.0-0.107","7t8","[""L""]","","","","","","927","key","z","z","16.672144329896646","912","513","2","0","0","1","0","false","",""
"","psychophysics","356","584521","0.0-2.0-1.107","7t8","[""L""]","","","","","","null","key","null","null","16.67147457627264","912","513","2","0","0","1","0","","",""
"","psychophysics","357","585532","0.0-2.0-3.107-0.107","7t8","[""L""]","","","","","","null","key","null","null","16.672283333334295","912","513","2","0","0","1","0","","",""
"","psychophysics","358","587057","0.0-2.0-0.108","7t8","[""L""]","","","","","","823","key","m","m","16.67223333333386","912","513","2","1","1","1","1","true","",""
"","psychophysics","359","588065","0.0-2.0-1.108","7t8","[""L""]","","","","","","null","key","null","null","16.673216666665393","912","513","2","1","1","1","1","","",""
"","psychophysics","360","589073","0.0-2.0-2.108-0.108","7t8","[""L""]","","","","","","null","key","null","null","16.67189830508462","912","513","2","1","1","1","1","","",""
"","psychophysics","361","590434","0.0-2.0-0.109","7t8","[""L""]","","","","","","653","key","m","m","16.672333333333725","912","513","1","0","0","0","1","false","",""
"","psychophysics","362","591441","0.0-2.0-1.109","7t8","[""L""]","","","","","","null","key","null","null","16.67213559322162","912","513","1","0","0","0","1","","",""
"","psychophysics","363","592450","0.0-2.0-3.109-0.109","7t8","[""L""]","","","","","","null","key","null","null","16.673033333333056","912","513","1","0","0","0","1","","",""
"","psychophysics","364","594241","0.0-2.0-0.110","7t8","[""L""]","","","","","","1087","key","z","z","16.672358490566214","912","513","2","1","1","0","0","false","",""
"","psychophysics","365","595248","0.0-2.0-1.110","7t8","[""L""]","","","","","","null","key","null","null","16.67281355932197","912","513","2","1","1","0","0","","",""
"","psychophysics","366","596259","0.0-2.0-3.110-0.110","7t8","[""L""]","","","","","","null","key","null","null","16.672299999999815","912","513","2","1","1","0","0","","",""
"","psychophysics","367","597697","0.0-2.0-0.111","7t8","[""L""]","","","","","","735","key","z","z","16.67258823529324","912","513","1","1","1","1","1","true","",""
"","psychophysics","368","598706","0.0-2.0-1.111","7t8","[""L""]","","","","","","null","key","null","null","16.672400000000682","912","513","1","1","1","1","1","","",""
"","psychophysics","369","599723","0.0-2.0-2.111-0.111","7t8","[""L""]","","","","","","null","key","null","null","16.673183333332418","912","513","1","1","1","1","1","","",""
"","psychophysics","370","601170","0.0-2.0-0.112","7t8","[""L""]","","","","","","743","key","m","m","16.67252325581327","912","513","2","0","1","0","1","true","",""
"","psychophysics","371","602178","0.0-2.0-1.112","7t8","[""L""]","","","","","","null","key","null","null","16.671203389830918","912","513","2","0","1","0","1","","",""
"","psychophysics","372","603186","0.0-2.0-2.112-0.112","7t8","[""L""]","","","","","","null","key","null","null","16.673016666667536","912","513","2","0","1","0","1","","",""
"","psychophysics","373","604938","0.0-2.0-0.113","7t8","[""L""]","","","","","","1048","key","m","m","16.671855769230977","912","513","2","0","0","0","1","true","",""
"","psychophysics","374","605945","0.0-2.0-1.113","7t8","[""L""]","","","","","","null","key","null","null","16.6720677966102","912","513","2","0","0","0","1","","",""
"","psychophysics","375","606954","0.0-2.0-2.113-0.113","7t8","[""L""]","","","","","","null","key","null","null","16.673133333333922","912","513","2","0","0","0","1","","",""
"","psychophysics","376","608524","0.0-2.0-0.114","7t8","[""L""]","","","","","","866","key","m","m","16.671462365591356","912","513","1","0","1","0","0","false","",""
"","psychophysics","377","609531","0.0-2.0-1.114","7t8","[""L""]","","","","","","null","key","null","null","16.67281355932197","912","513","1","0","1","0","0","","",""
"","psychophysics","378","610540","0.0-2.0-3.114-0.114","7t8","[""L""]","","","","","","null","key","null","null","16.67159999999955","912","513","1","0","1","0","0","","",""
"","psychophysics","379","612225","0.0-2.0-0.115","7t8","[""L""]","","","","","","983","key","z","z","16.67305000000051","912","513","1","1","0","1","1","true","",""
"","psychophysics","380","613233","0.0-2.0-1.115","7t8","[""L""]","","","","","","null","key","null","null","16.672610169491666","912","513","1","1","0","1","1","","",""
"","psychophysics","381","614244","0.0-2.0-2.115-0.115","7t8","[""L""]","","","","","","null","key","null","null","16.673016666667536","912","513","1","1","0","1","1","","",""
"","psychophysics","382","616474","0.0-2.0-0.116","7t8","[""L""]","","","","","","1526","key","m","m","16.671932330826838","912","513","2","1","0","1","0","true","",""
"","psychophysics","383","617480","0.0-2.0-1.116","7t8","[""L""]","","","","","","null","key","null","null","16.670661016949452","912","513","2","1","0","1","0","","",""
"","psychophysics","384","618489","0.0-2.0-2.116-0.116","7t8","[""L""]","","","","","","null","key","null","null","16.672881355933388","912","513","2","1","0","1","0","","",""
"","psychophysics","385","620889","0.0-2.0-0.117","7t8","[""L""]","","","","","","1695","key","z","z","16.67229370629314","912","513","1","1","0","1","1","true","",""
"","psychophysics","386","621897","0.0-2.0-1.117","7t8","[""L""]","","","","","","null","key","null","null","16.672833333333255","912","513","1","1","0","1","1","","",""
"","psychophysics","387","622906","0.0-2.0-2.117-0.117","7t8","[""L""]","","","","","","null","key","null","null","16.671898305086593","912","513","1","1","0","1","1","","",""
"","psychophysics","388","627057","0.0-2.0-0.118","7t8","[""L""]","","","","","","3447","key","m","m","16.672064516129115","912","513","1","1","1","0","1","false","",""
"","psychophysics","389","628065","0.0-2.0-1.118","7t8","[""L""]","","","","","","null","key","null","null","16.672383333333226","912","513","1","1","1","0","1","","",""
"","psychophysics","390","629073","0.0-2.0-3.118-0.118","7t8","[""L""]","","","","","","null","key","null","null","16.67218644067969","912","513","1","1","1","0","1","","",""
"","psychophysics","391","633033","0.0-2.0-0.119","7t8","[""L""]","","","","","","3255","key","m","m","16.67203375527425","912","513","1","0","0","0","1","false","",""
"","psychophysics","392","634039","0.0-2.0-1.119","7t8","[""L""]","","","","","","null","key","null","null","16.671593220338178","912","513","1","0","0","0","1","","",""
"","psychophysics","393","635049","0.0-2.0-3.119-0.119","7t8","[""L""]","","","","","","null","key","null","null","16.673133333333922","912","513","1","0","0","0","1","","",""
"","psychophysics","394","637961","0.0-2.0-0.120","7t8","[""L""]","","","","","","2208","key","z","z","16.671739884393123","912","513","1","1","0","1","1","true","",""
"","psychophysics","395","638969","0.0-2.0-1.120","7t8","[""L""]","","","","","","null","key","null","null","16.67280000000028","912","513","1","1","0","1","1","","",""
"","psychophysics","396","639978","0.0-2.0-2.120-0.120","7t8","[""L""]","","","","","","null","key","null","null","16.671559322035428","912","513","1","1","0","1","1","","",""
"","psychophysics","397","641698","0.0-2.0-0.121","7t8","[""L""]","","","","","","1017","key","z","z","16.672592233009727","912","513","1","1","1","1","0","true","",""
"","psychophysics","398","642706","0.0-2.0-1.121","7t8","[""L""]","","","","","","null","key","null","null","16.670559322035288","912","513","1","1","1","1","0","","",""
"","psychophysics","399","643715","0.0-2.0-2.121-0.121","7t8","[""L""]","","","","","","null","key","null","null","16.673149999999442","912","513","1","1","1","1","0","","",""
"","psychophysics","400","644577","0.0-2.0-0.122","7t8","[""L""]","","","","","","158","key","m","m","16.67183999999892","912","513","2","0","1","0","0","true","",""
"","psychophysics","401","645585","0.0-2.0-1.122","7t8","[""L""]","","","","","","null","key","null","null","16.67231666666727","912","513","2","0","1","0","0","","",""
"","psychophysics","402","646594","0.0-2.0-2.122-0.122","7t8","[""L""]","","","","","","null","key","null","null","16.671542372882083","912","513","2","0","1","0","0","","",""
"","psychophysics","403","647313","0.0-2.0-0.123","7t8","[""L""]","","","","","","16","key","z","z","16.673476190478098","912","513","1","0","1","1","1","true","",""
"","psychophysics","404","648320","0.0-2.0-1.123","7t8","[""L""]","","","","","","null","key","null","null","16.672050000001523","912","513","1","0","1","1","1","","",""
"","psychophysics","405","649328","0.0-2.0-2.123-0.123","7t8","[""L""]","","","","","","null","key","null","null","16.67294915254283","912","513","1","0","1","1","1","","",""
"","psychophysics","406","650129","0.0-2.0-0.124","7t8","[""L""]","","","","","","97","key","z","z","16.67344680851068","912","513","2","0","1","1","1","false","",""
"","psychophysics","407","651136","0.0-2.0-1.124","7t8","[""L""]","","","","","","null","key","null","null","16.673033333333056","912","513","2","0","1","1","1","","",""
"","psychophysics","408","652144","0.0-2.0-3.124-0.124","7t8","[""L""]","","","","","","null","key","null","null","16.672016949154106","912","513","2","0","1","1","1","","",""
"","psychophysics","409","653473","0.0-2.0-0.125","7t8","[""L""]","","","","","","626","key","m","m","16.672784810125403","912","513","2","1","0","1","1","true","",""
"","psychophysics","410","654479","0.0-2.0-1.125","7t8","[""L""]","","","","","","null","key","null","null","16.6725593220336","912","513","2","1","0","1","1","","",""
"","psychophysics","411","655488","0.0-2.0-2.125-0.125","7t8","[""L""]","","","","","","null","key","null","null","16.671900000000218","912","513","2","1","0","1","1","","",""
"","psychophysics","412","657057","0.0-2.0-0.126","7t8","[""L""]","","","","","","864","key","z","z","16.67182795698905","912","513","1","0","0","0","1","true","",""
"","psychophysics","413","658063","0.0-2.0-1.126","7t8","[""L""]","","","","","","null","key","null","null","16.67184745762655","912","513","1","0","0","0","1","","",""
"","psychophysics","414","659072","0.0-2.0-2.126-0.126","7t8","[""L""]","","","","","","null","key","null","null","16.67279999999834","912","513","1","0","0","0","1","","",""
"","psychophysics","415","659905","0.0-2.0-0.127","7t8","[""L""]","","","","","","130","key","m","m","16.67318367347007","912","513","2","0","1","1","0","true","",""
"","psychophysics","416","660911","0.0-2.0-1.127","7t8","[""L""]","","","","","","null","key","null","null","16.67138983050985","912","513","2","0","1","1","0","","",""
"","psychophysics","417","661919","0.0-2.0-2.127-0.127","7t8","[""L""]","","","","","","null","key","null","null","16.673152542373135","912","513","2","0","1","1","0","","",""
"","psychophysics","418","662913","0.0-2.0-0.128","7t8","[""L""]","","","","","","288","key","m","m","16.67211864406827","912","513","2","0","1","0","1","true","",""
"","psychophysics","419","663919","0.0-2.0-1.128","7t8","[""L""]","","","","","","null","key","null","null","16.67286440678004","912","513","2","0","1","0","1","","",""
"","psychophysics","420","664928","0.0-2.0-2.128-0.128","7t8","[""L""]","","","","","","null","key","null","null","16.672100000000015","912","513","2","0","1","0","1","","",""
"","psychophysics","421","667137","0.0-2.0-0.129","7t8","[""L""]","","","","","","1505","key","z","z","16.672038167939018","912","513","1","0","1","1","0","true","",""
"","psychophysics","422","668144","0.0-2.0-1.129","7t8","[""L""]","","","","","","null","key","null","null","16.672850000000714","912","513","1","0","1","1","0","","",""
"","psychophysics","423","669152","0.0-2.0-2.129-0.129","7t8","[""L""]","","","","","","null","key","null","null","16.671644067796247","912","513","1","0","1","1","0","","",""
"","psychophysics","424","671217","0.0-2.0-0.130","7t8","[""L""]","","","","","","1360","key","m","m","16.672463414634056","912","513","2","1","0","1","0","true","",""
"","psychophysics","425","672226","0.0-2.0-1.130","7t8","[""L""]","","","","","","null","key","null","null","16.672833333335195","912","513","2","1","0","1","0","","",""
"","psychophysics","426","673241","0.0-2.0-2.130-0.130","7t8","[""L""]","","","","","","null","key","null","null","16.67243333333366","912","513","2","1","0","1","0","","",""
"","psychophysics","427","674937","0.0-2.0-0.131","7t8","[""L""]","","","","","","991","key","m","m","16.671870000000343","912","513","2","0","1","1","1","true","",""
"","psychophysics","428","675945","0.0-2.0-1.131","7t8","[""L""]","","","","","","null","key","null","null","16.672500000001552","912","513","2","0","1","1","1","","",""
"","psychophysics","429","676953","0.0-2.0-2.131-0.131","7t8","[""L""]","","","","","","null","key","null","null","16.672338983051922","912","513","2","0","1","1","1","","",""
"","psychophysics","430","678994","0.0-2.0-0.132","7t8","[""L""]","","","","","","1337","key","m","m","16.67235245901641","912","513","2","1","1","1","1","true","",""
"","psychophysics","431","680001","0.0-2.0-1.132","7t8","[""L""]","","","","","","null","key","null","null","16.671796610170453","912","513","2","1","1","1","1","","",""
"","psychophysics","432","681010","0.0-2.0-2.132-0.132","7t8","[""L""]","","","","","","null","key","null","null","16.673116666668406","912","513","2","1","1","1","1","","",""
"","psychophysics","433","683395","0.0-2.0-0.133","7t8","[""L""]","","","","","","1679","key","z","z","16.67135211267643","912","513","1","1","1","1","1","true","",""
"","psychophysics","434","684402","0.0-2.0-1.133","7t8","[""L""]","","","","","","null","key","null","null","16.671966101696036","912","513","1","1","1","1","1","","",""
"","psychophysics","435","685412","0.0-2.0-2.133-0.133","7t8","[""L""]","","","","","","null","key","null","null","16.672833333333255","912","513","1","1","1","1","1","","",""
"","psychophysics","436","687417","0.0-2.0-0.134","7t8","[""L""]","","","","","","1301","key","z","z","16.671840336134643","912","513","2","0","0","0","1","false","",""
"","psychophysics","437","688423","0.0-2.0-1.134","7t8","[""L""]","","","","","","null","key","null","null","16.67189830508462","912","513","2","0","0","0","1","","",""
"","psychophysics","438","689433","0.0-2.0-3.134-0.134","7t8","[""L""]","","","","","","null","key","null","null","16.673316666666263","912","513","2","0","0","0","1","","",""
"","psychophysics","439","690993","0.0-2.0-0.135","7t8","[""L""]","","","","","","857","key","m","m","16.67158695652261","912","513","2","1","0","1","1","true","",""
"","psychophysics","440","692000","0.0-2.0-1.135","7t8","[""L""]","","","","","","null","key","null","null","16.671816666666807","912","513","2","1","0","1","1","","",""
"","psychophysics","441","693008","0.0-2.0-2.135-0.135","7t8","[""L""]","","","","","","null","key","null","null","16.671796610170453","912","513","2","1","0","1","1","","",""
"","psychophysics","442","694953","0.0-2.0-0.136","7t8","[""L""]","","","","","","1241","key","m","m","16.672336206895878","912","513","2","0","1","0","1","true","",""
"","psychophysics","443","695960","0.0-2.0-1.136","7t8","[""L""]","","","","","","null","key","null","null","16.672016949154106","912","513","2","0","1","0","1","","",""
"","psychophysics","444","696971","0.0-2.0-2.136-0.136","7t8","[""L""]","","","","","","null","key","null","null","16.672600000000482","912","513","2","0","1","0","1","","",""
"","psychophysics","445","698657","0.0-2.0-0.137","7t8","[""L""]","","","","","","982","key","m","m","16.671840000000085","912","513","2","0","1","0","1","true","",""
"","psychophysics","446","699666","0.0-2.0-1.137","7t8","[""L""]","","","","","","null","key","null","null","16.672216666666404","912","513","2","0","1","0","1","","",""
"","psychophysics","447","700674","0.0-2.0-2.137-0.137","7t8","[""L""]","","","","","","null","key","null","null","16.67255932203557","912","513","2","0","1","0","1","","",""
"","psychophysics","448","702145","0.0-2.0-0.138","7t8","[""L""]","","","","","","767","key","z","z","16.672206896551263","912","513","2","0","1","0","1","false","",""
"","psychophysics","449","703152","0.0-2.0-1.138","7t8","[""L""]","","","","","","null","key","null","null","16.67280000000028","912","513","2","0","1","0","1","","",""
"","psychophysics","450","704161","0.0-2.0-3.138-0.138","7t8","[""L""]","","","","","","null","key","null","null","16.671847457628523","912","513","2","0","1","0","1","","",""
"","psychophysics","451","705721","0.0-2.0-0.139","7t8","[""L""]","","","","","","855","key","m","m","16.672451612902606","912","513","2","1","0","1","0","true","",""
"","psychophysics","452","706728","0.0-2.0-1.139","7t8","[""L""]","","","","","","null","key","null","null","16.778694915253734","912","513","2","1","0","1","0","","",""
"","psychophysics","453","707738","0.0-2.0-2.139-0.139","7t8","[""L""]","","","","","","null","key","null","null","16.672749999999844","912","513","2","1","0","1","0","","",""
"","psychophysics","454","709273","0.0-2.0-0.140","7t8","[""L""]","","","","","","831","key","m","m","16.672318681319766","912","513","1","0","0","1","0","false","",""
"","psychophysics","455","710279","0.0-2.0-1.140","7t8","[""L""]","","","","","","null","key","null","null","16.67101694915199","912","513","1","0","0","1","0","","",""
"","psychophysics","456","711290","0.0-2.0-3.140-0.140","7t8","[""L""]","","","","","","null","key","null","null","16.672300000001755","912","513","1","0","0","1","0","","",""
"","psychophysics","457","712609","0.0-2.0-0.141","7t8","[""L""]","","","","","","614","key","m","m","16.672410256409933","912","513","2","1","1","1","0","true","",""
"","psychophysics","458","713616","0.0-2.0-1.141","7t8","[""L""]","","","","","","null","key","null","null","16.95913793103456","912","513","2","1","1","1","0","","",""
"","psychophysics","459","714625","0.0-2.0-2.141-0.141","7t8","[""L""]","","","","","","null","key","null","null","16.672933333332185","912","513","2","1","1","1","0","","",""
"","psychophysics","460","716233","0.0-2.0-0.142","7t8","[""L""]","","","","","","905","key","z","z","16.67171578947332","912","513","1","0","0","1","0","true","",""
"","psychophysics","461","717240","0.0-2.0-1.142","7t8","[""L""]","","","","","","null","key","null","null","16.672916666666666","912","513","1","0","0","1","0","","",""
"","psychophysics","462","718248","0.0-2.0-2.142-0.142","7t8","[""L""]","","","","","","null","key","null","null","16.671169491526197","912","513","1","0","0","1","0","","",""
"","psychophysics","463","719497","0.0-2.0-0.143","7t8","[""L""]","","","","","","545","key","m","m","16.672918918918555","912","513","1","0","0","1","1","false","",""
"","psychophysics","464","720503","0.0-2.0-1.143","7t8","[""L""]","","","","","","null","key","null","null","16.673474576270948","912","513","1","0","0","1","1","","",""
"","psychophysics","465","721512","0.0-2.0-3.143-0.143","7t8","[""L""]","","","","","","null","key","null","null","16.672450000001117","912","513","1","0","0","1","1","","",""
"","psychophysics","466","723025","0.0-2.0-0.144","7t8","[""L""]","","","","","","809","key","z","z","16.67193333333384","912","513","2","1","1","1","1","false","",""
"","psychophysics","467","724032","0.0-2.0-1.144","7t8","[""L""]","","","","","","null","key","null","null","16.671949152542688","912","513","2","1","1","1","1","","",""
"","psychophysics","468","725041","0.0-2.0-3.144-0.144","7t8","[""L""]","","","","","","null","key","null","null","16.672599999998543","912","513","2","1","1","1","1","","",""
"","psychophysics","469","726489","0.0-2.0-0.145","7t8","[""L""]","","","","","","745","key","m","m","16.671729411764126","912","513","1","1","1","1","1","false","",""
"","psychophysics","470","727497","0.0-2.0-1.145","7t8","[""L""]","","","","","","null","key","null","null","16.673099999999007","912","513","1","1","1","1","1","","",""
"","psychophysics","471","728507","0.0-2.0-3.145-0.145","7t8","[""L""]","","","","","","null","key","null","null","16.672627118643042","912","513","1","1","1","1","1","","",""
"","psychophysics","472","729817","0.0-2.0-0.146","7t8","[""L""]","","","","","","599","key","m","m","16.671910256411557","912","513","2","1","0","1","1","true","",""
"","psychophysics","473","730824","0.0-2.0-1.146","7t8","[""L""]","","","","","","null","key","null","null","16.672593220340293","912","513","2","1","0","1","1","","",""
"","psychophysics","474","731832","0.0-2.0-2.146-0.146","7t8","[""L""]","","","","","","null","key","null","null","16.671816666666807","912","513","2","1","0","1","1","","",""
"","psychophysics","475","733185","0.0-2.0-0.147","7t8","[""L""]","","","","","","648","key","m","m","16.67193750000006","912","513","2","1","0","1","0","true","",""
"","psychophysics","476","734192","0.0-2.0-1.147","7t8","[""L""]","","","","","","null","key","null","null","16.672389830508017","912","513","2","1","0","1","0","","",""
"","psychophysics","477","735200","0.0-2.0-2.147-0.147","7t8","[""L""]","","","","","","null","key","null","null","16.67160000000149","912","513","2","1","0","1","0","","",""
"","psychophysics","478","736929","0.0-2.0-0.148","7t8","[""L""]","","","","","","1026","key","z","z","16.67188349514589","912","513","1","1","0","1","1","true","",""
"","psychophysics","479","737937","0.0-2.0-1.148","7t8","[""L""]","","","","","","null","key","null","null","16.67098305084924","912","513","1","1","0","1","1","","",""
"","psychophysics","480","738945","0.0-2.0-2.148-0.148","7t8","[""L""]","","","","","","null","key","null","null","16.673033333333056","912","513","1","1","0","1","1","","",""
"","psychophysics","481","740417","0.0-2.0-0.149","7t8","[""L""]","","","","","","768","key","m","m","16.671402298850705","912","513","2","0","1","1","0","true","",""
"","psychophysics","482","741424","0.0-2.0-1.149","7t8","[""L""]","","","","","","null","key","null","null","16.672288135593853","912","513","2","0","1","1","0","","",""
"","psychophysics","483","742433","0.0-2.0-2.149-0.149","7t8","[""L""]","","","","","","null","key","null","null","16.672466666666637","912","513","2","0","1","1","0","","",""
"","psychophysics","484","743753","0.0-2.0-0.150","7t8","[""L""]","","","","","","616","key","m","m","16.67187179487276","912","513","1","0","1","0","1","false","",""
"","psychophysics","485","744760","0.0-2.0-1.150","7t8","[""L""]","","","","","","null","key","null","null","16.67171186440569","912","513","1","0","1","0","1","","",""
"","psychophysics","486","745769","0.0-2.0-3.150-0.150","7t8","[""L""]","","","","","","null","key","null","null","16.672933333332185","912","513","1","0","1","0","1","","",""
"","psychophysics","487","746616","0.0-2.0-0.151","7t8","[""L""]","","","","","","145","key","z","z","16.673159999998752","912","513","2","1","0","1","0","false","",""
"","psychophysics","488","747623","0.0-2.0-1.151","7t8","[""L""]","","","","","","null","key","null","null","16.671745762712387","912","513","2","1","0","1","0","","",""
"","psychophysics","489","748632","0.0-2.0-3.151-0.151","7t8","[""L""]","","","","","","null","key","null","null","16.672766666667304","912","513","2","1","0","1","0","","",""
"","psychophysics","490","749368","0.0-2.0-0.152","7t8","[""L""]","","","","","","33","key","m","m","16.671790697676844","912","513","1","0","0","1","0","false","",""
"","psychophysics","491","750375","0.0-2.0-1.152","7t8","[""L""]","","","","","","null","key","null","null","16.671254237288988","912","513","1","0","0","1","0","","",""
"","psychophysics","492","751384","0.0-2.0-3.152-0.152","7t8","[""L""]","","","","","","null","key","null","null","16.672550000000047","912","513","1","0","0","1","0","","",""
"","psychophysics","493","752393","0.0-2.0-0.153","7t8","[""L""]","","","","","","305","key","z","z","16.671305084745082","912","513","1","1","1","1","1","true","",""
"","psychophysics","494","753401","0.0-2.0-1.153","7t8","[""L""]","","","","","","null","key","null","null","16.673283333335227","912","513","1","1","1","1","1","","",""
"","psychophysics","495","754410","0.0-2.0-2.153-0.153","7t8","[""L""]","","","","","","null","key","null","null","16.67237288135467","912","513","1","1","1","1","1","","",""
"","psychophysics","496","755265","0.0-2.0-0.154","7t8","[""L""]","","","","","","152","key","z","z","16.672939999999944","912","513","1","0","0","1","0","true","",""
"","psychophysics","497","756272","0.0-2.0-1.154","7t8","[""L""]","","","","","","null","key","null","null","16.67281666666774","912","513","1","0","0","1","0","","",""
"","psychophysics","498","757280","0.0-2.0-2.154-0.154","7t8","[""L""]","","","","","","null","key","null","null","16.672000000000757","912","513","1","0","0","1","0","","",""
"","psychophysics","499","758329","0.0-2.0-0.155","7t8","[""L""]","","","","","","342","key","m","m","16.672790322580465","912","513","1","0","1","1","0","false","",""
"","psychophysics","500","759336","0.0-2.0-1.155","7t8","[""L""]","","","","","","null","key","null","null","16.67280000000028","912","513","1","0","1","1","0","","",""
"","psychophysics","501","760345","0.0-2.0-3.155-0.155","7t8","[""L""]","","","","","","null","key","null","null","16.671864406779896","912","513","1","0","1","1","0","","",""
"","psychophysics","502","761403","0.0-2.0-0.156","7t8","[""L""]","","","","","","355","key","z","z","16.671761904761844","912","513","2","0","0","1","1","false","",""
"","psychophysics","503","762409","0.0-2.0-1.156","7t8","[""L""]","","","","","","null","key","null","null","16.67242372881274","912","513","2","0","0","1","1","","",""
"","psychophysics","504","763419","0.0-2.0-3.156-0.156","7t8","[""L""]","","","","","","null","key","null","null","16.672550000000047","912","513","2","0","0","1","1","","",""
"","psychophysics","505","765096","0.0-2.0-0.157","7t8","[""L""]","","","","","","973","key","z","z","16.671757575757145","912","513","1","0","0","1","1","true","",""
"","psychophysics","506","766106","0.0-2.0-1.157","7t8","[""L""]","","","","","","null","key","null","null","16.672933333334125","912","513","1","0","0","1","1","","",""
"","psychophysics","507","767115","0.0-2.0-2.157-0.157","7t8","[""L""]","","","","","","null","key","null","null","16.671830508473203","912","513","1","0","0","1","1","","",""
"","psychophysics","508","768913","0.0-2.0-0.158","7t8","[""L""]","","","","","","1094","key","m","m","16.672644859813065","912","513","2","0","0","1","1","true","",""
"","psychophysics","509","769919","0.0-2.0-1.158","7t8","[""L""]","","","","","","null","key","null","null","16.67294915254283","912","513","2","0","0","1","1","","",""
"","psychophysics","510","770929","0.0-2.0-2.158-0.158","7t8","[""L""]","","","","","","null","key","null","null","16.671749999998912","912","513","2","0","0","1","1","","",""
"","psychophysics","511","772290","0.0-2.0-0.159","7t8","[""L""]","","","","","","657","key","z","z","16.672419753085165","912","513","2","0","0","1","1","false","",""
"","psychophysics","512","773296","0.0-2.0-1.159","7t8","[""L""]","","","","","","null","key","null","null","16.67296610169618","912","513","2","0","0","1","1","","",""
"","psychophysics","513","774306","0.0-2.0-3.159-0.159","7t8","[""L""]","","","","","","null","key","null","null","16.672533333332588","912","513","2","0","0","1","1","","",""
"","psychophysics","514","775329","0.0-2.0-0.160","7t8","[""L""]","","","","","","320","key","m","m","16.672400000000682","912","513","2","0","1","0","1","true","",""
"","psychophysics","515","776335","0.0-2.0-1.160","7t8","[""L""]","","","","","","null","key","null","null","16.671932203389343","912","513","2","0","1","0","1","","",""
"","psychophysics","516","777344","0.0-2.0-2.160-0.160","7t8","[""L""]","","","","","","null","key","null","null","16.672550000000047","912","513","2","0","1","0","1","","",""
"","psychophysics","517","778097","0.0-2.0-0.161","7t8","[""L""]","","","","","","48","key","z","z","16.670886363635706","912","513","2","1","0","0","1","false","",""
"","psychophysics","518","779104","0.0-2.0-1.161","7t8","[""L""]","","","","","","null","key","null","null","16.67167796610097","912","513","2","1","0","0","1","","",""
"","psychophysics","519","780113","0.0-2.0-3.161-0.161","7t8","[""L""]","","","","","","null","key","null","null","16.672849999998775","912","513","2","1","0","0","1","","",""
"","psychophysics","520","780969","0.0-2.0-0.162","7t8","[""L""]","","","","","","153","key","m","m","16.671999999999535","912","513","1","1","1","1","0","false","",""
"","psychophysics","521","781976","0.0-2.0-1.162","7t8","[""L""]","","","","","","null","key","null","null","16.67289999999921","912","513","1","1","1","1","0","","",""
"","psychophysics","522","782984","0.0-2.0-3.162-0.162","7t8","[""L""]","","","","","","null","key","null","null","16.671915254237966","912","513","1","1","1","1","0","","",""
"","psychophysics","523","783729","0.0-2.0-0.163","7t8","[""L""]","","","","","","40","key","z","z","16.672749999997905","912","513","1","1","0","1","1","true","",""
"","psychophysics","524","784736","0.0-2.0-1.163","7t8","[""L""]","","","","","","null","key","null","null","16.671576271186805","912","513","1","1","0","1","1","","",""
"","psychophysics","525","785746","0.0-2.0-2.163-0.163","7t8","[""L""]","","","","","","null","key","null","null","16.672583333333023","912","513","1","1","0","1","1","","",""
"","psychophysics","526","786761","0.0-2.0-0.164","7t8","[""L""]","","","","","","312","key","m","m","16.671866666667242","912","513","1","0","0","1","1","false","",""
"","psychophysics","527","787768","0.0-2.0-1.164","7t8","[""L""]","","","","","","null","key","null","null","16.671864406779896","912","513","1","0","0","1","1","","",""
"","psychophysics","528","788777","0.0-2.0-3.164-0.164","7t8","[""L""]","","","","","","null","key","null","null","16.672616666666","912","513","1","0","0","1","1","","",""
"","psychophysics","529","791985","0.0-2.0-0.165","7t8","[""L""]","","","","","","2503","key","z","z","16.671910994764204","912","513","2","1","0","0","1","false","",""
"","psychophysics","530","792991","0.0-2.0-1.165","7t8","[""L""]","","","","","","null","key","null","null","16.67201694915213","912","513","2","1","0","0","1","","",""
"","psychophysics","531","794000","0.0-2.0-3.165-0.165","7t8","[""L""]","","","","","","null","key","null","null","16.672383333333226","912","513","2","1","0","0","1","","",""
"","psychophysics","532","797233","0.0-2.0-0.166","7t8","[""L""]","","","","","","2529","key","m","m","16.671829015544347","912","513","1","0","1","0","0","false","",""
"","psychophysics","533","798241","0.0-2.0-1.166","7t8","[""L""]","","","","","","null","key","null","null","16.671576271186805","912","513","1","0","1","0","0","","",""
"","psychophysics","534","799250","0.0-2.0-3.166-0.166","7t8","[""L""]","","","","","","null","key","null","null","16.672499999999612","912","513","1","0","1","0","0","","",""
"","psychophysics","535","802841","0.0-2.0-0.167","7t8","[""L""]","","","","","","2886","key","m","m","16.67186448598176","912","513","2","0","0","1","1","true","",""
"","psychophysics","536","803849","0.0-2.0-1.167","7t8","[""L""]","","","","","","null","key","null","null","16.954983050848153","912","513","2","0","0","1","1","","",""
"","psychophysics","537","804858","0.0-2.0-2.167-0.167","7t8","[""L""]","","","","","","null","key","null","null","16.67174576271041","912","513","2","0","0","1","1","","",""
"","psychophysics","538","806681","0.0-2.0-0.168","7t8","[""L""]","","","","","","1120","key","m","m","16.672259259259725","912","513","2","1","1","1","1","true","",""
"","psychophysics","539","807689","0.0-2.0-1.168","7t8","[""L""]","","","","","","null","key","null","null","16.672850000000714","912","513","2","1","1","1","1","","",""
"","psychophysics","540","808700","0.0-2.0-2.168-0.168","7t8","[""L""]","","","","","","null","key","null","null","16.672350000000247","912","513","2","1","1","1","1","","",""
"","psychophysics","541","812361","0.0-2.0-0.169","7t8","[""L""]","","","","","","2956","key","z","z","16.67186238532117","912","513","2","0","1","0","1","false","",""
"","psychophysics","542","813368","0.0-2.0-1.169","7t8","[""L""]","","","","","","null","key","null","null","16.672933333334125","912","513","2","0","1","0","1","","",""
"","psychophysics","543","814377","0.0-2.0-3.169-0.169","7t8","[""L""]","","","","","","null","key","null","null","16.67171186440569","912","513","2","0","1","0","1","","",""
"","psychophysics","544","815609","0.0-2.0-0.170","7t8","[""L""]","","","","","","529","key","m","m","16.672712328767226","912","513","2","0","0","1","0","true","",""
"","psychophysics","545","816617","0.0-2.0-1.170","7t8","[""L""]","","","","","","null","key","null","null","16.67184745762655","912","513","2","0","0","1","0","","",""
"","psychophysics","546","817626","0.0-2.0-2.170-0.170","7t8","[""L""]","","","","","","null","key","null","null","16.672449999999177","912","513","2","0","0","1","0","","",""
"","psychophysics","547","818617","0.0-2.0-0.171","7t8","[""L""]","","","","","","287","key","m","m","16.672275862070443","912","513","1","0","0","0","1","false","",""
"","psychophysics","548","819624","0.0-2.0-1.171","7t8","[""L""]","","","","","","null","key","null","null","16.673950000000573","912","513","1","0","0","0","1","","",""
"","psychophysics","549","820633","0.0-2.0-3.171-0.171","7t8","[""L""]","","","","","","null","key","null","null","16.672677966101112","912","513","1","0","0","0","1","","",""
"","psychophysics","550","821361","0.0-2.0-0.172","7t8","[""L""]","","","","","","23","key","m","m","16.673139534885237","912","513","2","0","1","0","1","true","",""
"","psychophysics","551","822368","0.0-2.0-1.172","7t8","[""L""]","","","","","","null","key","null","null","16.671220338982295","912","513","2","0","1","0","1","","",""
"","psychophysics","552","823384","0.0-2.0-2.172-0.172","7t8","[""L""]","","","","","","null","key","null","null","16.67213333333299","912","513","2","0","1","0","1","","",""
"","psychophysics","553","824225","0.0-2.0-0.173","7t8","[""L""]","","","","","","136","key","m","m","16.672939999999944","912","513","2","0","0","0","1","true","",""
"","psychophysics","554","825232","0.0-2.0-1.173","7t8","[""L""]","","","","","","null","key","null","null","16.671830508473203","912","513","2","0","0","0","1","","",""
"","psychophysics","555","826241","0.0-2.0-2.173-0.173","7t8","[""L""]","","","","","","null","key","null","null","16.672749999999844","912","513","2","0","0","0","1","","",""
"","psychophysics","556","827185","0.0-2.0-0.174","7t8","[""L""]","","","","","","241","key","z","z","16.671927272727373","912","513","2","0","0","1","1","false","",""
"","psychophysics","557","828192","0.0-2.0-1.174","7t8","[""L""]","","","","","","null","key","null","null","16.672933333334125","912","513","2","0","0","1","1","","",""
"","psychophysics","558","829201","0.0-2.0-3.174-0.174","7t8","[""L""]","","","","","","null","key","null","null","16.671915254237966","912","513","2","0","0","1","1","","",""
"","psychophysics","559","829929","0.0-2.0-0.175","7t8","[""L""]","","","","","","24","key","m","m","16.67218604651388","912","513","2","1","0","1","0","true","",""
"","psychophysics","560","830936","0.0-2.0-1.175","7t8","[""L""]","","","","","","null","key","null","null","16.671050847456712","912","513","2","1","0","1","0","","",""
"","psychophysics","561","831945","0.0-2.0-2.175-0.175","7t8","[""L""]","","","","","","null","key","null","null","16.672600000000482","912","513","2","1","0","1","0","","",""
"","psychophysics","562","832849","0.0-2.0-0.176","7t8","[""L""]","","","","","","201","key","m","m","16.67209433962345","912","513","1","1","1","1","1","false","",""
"","psychophysics","563","833859","0.0-2.0-1.176","7t8","[""L""]","","","","","","null","key","null","null","16.67216666666597","912","513","1","1","1","1","1","","",""
"","psychophysics","564","834867","0.0-2.0-3.176-0.176","7t8","[""L""]","","","","","","null","key","null","null","16.6718135593238","912","513","1","1","1","1","1","","",""
"","psychophysics","565","836481","0.0-2.0-0.177","7t8","[""L""]","","","","","","909","key","m","m","16.672343750000437","912","513","1","1","1","1","0","false","",""
"","psychophysics","566","837487","0.0-2.0-1.177","7t8","[""L""]","","","","","","null","key","null","null","16.670355932203012","912","513","1","1","1","1","0","","",""
"","psychophysics","567","838491","0.0-2.0-3.177-0.177","7t8","[""L""]","","","","","","null","key","null","null","16.67430508474551","912","513","1","1","1","1","0","","",""
"","psychophysics","568","839921","0.0-2.0-0.178","7t8","[""L""]","","","","","","725","key","z","z","16.671929411764037","912","513","1","1","0","1","1","true","",""
"","psychophysics","569","840929","0.0-2.0-1.178","7t8","[""L""]","","","","","","null","key","null","null","16.672033333334063","912","513","1","1","0","1","1","","",""
"","psychophysics","570","841937","0.0-2.0-2.178-0.178","7t8","[""L""]","","","","","","null","key","null","null","16.672372881356644","912","513","1","1","0","1","1","","",""
"","psychophysics","571","843457","0.0-2.0-0.179","7t8","[""L""]","","","","","","815","key","m","m","16.67256666666621","912","513","2","1","1","1","0","true","",""
"","psychophysics","572","844465","0.0-2.0-1.179","7t8","[""L""]","","","","","","null","key","null","null","16.672833333333255","912","513","2","1","1","1","0","","",""
"","psychophysics","573","845474","0.0-2.0-2.179-0.179","7t8","[""L""]","","","","","","null","key","null","null","16.671745762712387","912","513","2","1","1","1","0","","",""
"","psychophysics","574","847073","0.0-2.0-0.180","7t8","[""L""]","","","","","","894","key","m","m","16.672536842104684","912","513","1","0","1","0","1","false","",""
"","psychophysics","575","848082","0.0-2.0-1.180","7t8","[""L""]","","","","","","null","key","null","null","16.673116666666466","912","513","1","0","1","0","1","","",""
"","psychophysics","576","849091","0.0-2.0-3.180-0.180","7t8","[""L""]","","","","","","null","key","null","null","16.672355932203295","912","513","1","0","1","0","1","","",""
"","psychophysics","577","850145","0.0-2.0-0.181","7t8","[""L""]","","","","","","349","key","z","z","16.67300000000039","912","513","2","0","1","0","1","false","",""
"","psychophysics","578","851153","0.0-2.0-1.181","7t8","[""L""]","","","","","","null","key","null","null","16.672733333334328","912","513","2","0","1","0","1","","",""
"","psychophysics","579","852162","0.0-2.0-3.181-0.181","7t8","[""L""]","","","","","","null","key","null","null","16.67201694915213","912","513","2","0","1","0","1","","",""
