"success","trial_type","trial_index","time_elapsed","internal_node_id","subject","condition","timeout","failed_images","failed_audio","failed_video","view_history","rt","response_type","key_press","response","avg_frame_time","center_x","center_y","outcome","p1conf","p2conf","p1rslt","p2rslt","correct","stimulus","question_order"
"true","fullscreen","0","2325","0.0-0.0-0.0","r60","[""L""]","","","","","","","","","","","","","","","","","","","",""
"true","preload","1","2326","0.0-0.0-1.0","r60","[""L""]","false","[]","[]","[]","","","","","","","","","","","","","","","",""
"","instructions","2","6472","0.0-1.0","r60","[""L""]","","","","","[{""page_index"":0,""viewing_time"":1614},{""page_index"":1,""viewing_time"":1310},{""page_index"":2,""viewing_time"":1222}]","4146","","","","","","","","","","","","","",""
"","psychophysics","3","6486","0.0-2.0-0.0","r60","[""L""]","","","","","","null","key","null","null","5.440000000000055","729.2","410.4","2","1","0","1","1","null","",""
"","psychophysics","4","6501","0.0-2.0-1.0","r60","[""L""]","","","","","","null","key","null","null","6.059999999999491","729.2","410.4","2","1","0","1","1","","",""
"","psychophysics","5","6505","0.0-2.0-3.0-0.0","r60","[""L""]","","","","","","null","key","null","null","NaN","729.2","410.4","2","1","0","1","1","","",""
"","psychophysics","6","6517","0.0-2.0-0.1","r60","[""L""]","","","","","","null","key","null","null","6.0600000000004","729.2","410.4","2","1","1","0","1","null","",""
"","psychophysics","7","6538","0.0-2.0-1.1","r60","[""L""]","","","","","","null","key","null","null","12.1200000000008","729.2","410.4","2","1","1","0","1","","",""
"","psychophysics","8","6549","0.0-2.0-3.1-0.1","r60","[""L""]","","","","","","null","key","null","null","NaN","729.2","410.4","2","1","1","0","1","","",""
"","psychophysics","9","6565","0.0-2.0-0.2","r60","[""L""]","","","","","","null","key","null","null","6.069999999999709","729.2","410.4","1","0","0","0","1","null","",""
"","psychophysics","10","6579","0.0-2.0-1.2","r60","[""L""]","","","","","","null","key","null","null","6.059999999999491","729.2","410.4","1","0","0","0","1","","",""
"","psychophysics","11","6594","0.0-2.0-3.2-0.2","r60","[""L""]","","","","","","null","key","null","null","6.059999999999945","729.2","410.4","1","0","0","0","1","","",""
"","psychophysics","12","6610","0.0-2.0-0.3","r60","[""L""]","","","","","","null","key","null","null","6.059999999999491","729.2","410.4","1","1","1","1","1","null","",""
"","psychophysics","13","6624","0.0-2.0-1.3","r60","[""L""]","","","","","","null","key","null","null","6.059999999999945","729.2","410.4","1","1","1","1","1","","",""
"","psychophysics","14","6640","0.0-2.0-3.3-0.3","r60","[""L""]","","","","","","null","key","null","null","6.059999999999491","729.2","410.4","1","1","1","1","1","","",""
"","psychophysics","15","6655","0.0-2.0-0.4","r60","[""L""]","","","","","","null","key","null","null","6.059999999999945","729.2","410.4","2","1","1","1","1","null","",""
"","psychophysics","16","6671","0.0-2.0-1.4","r60","[""L""]","","","","","","null","key","null","null","6.059999999999945","729.2","410.4","2","1","1","1","1","","",""
"","psychophysics","17","6687","0.0-2.0-3.4-0.4","r60","[""L""]","","","","","","null","key","null","null","6.0600000000004","729.2","410.4","2","1","1","1","1","","",""
"","psychophysics","18","6702","0.0-2.0-0.5","r60","[""L""]","","","","","","null","key","null","null","6.059999999999945","729.2","410.4","2","0","0","1","1","null","",""
"","psychophysics","19","6718","0.0-2.0-1.5","r60","[""L""]","","","","","","null","key","null","null","6.059999999999491","729.2","410.4","2","0","0","1","1","","",""
"","psychophysics","20","6733","0.0-2.0-3.5-0.5","r60","[""L""]","","","","","","null","key","null","null","6.059999999999945","729.2","410.4","2","0","0","1","1","","",""
"","psychophysics","21","6748","0.0-2.0-0.6","r60","[""L""]","","","","","","null","key","null","null","6.059999999999491","729.2","410.4","2","0","1","0","1","null","",""
"","psychophysics","22","6765","0.0-2.0-1.6","r60","[""L""]","","","","","","null","key","null","null","6.069999999999709","729.2","410.4","2","0","1","0","1","","",""
"","psychophysics","23","6781","0.0-2.0-3.6-0.6","r60","[""L""]","","","","","","null","key","null","null","6.059999999999945","729.2","410.4","2","0","1","0","1","","",""
"","psychophysics","24","6797","0.0-2.0-0.7","r60","[""L""]","","","","","","null","key","null","null","6.059999999999491","729.2","410.4","2","1","1","1","1","null","",""
"","psychophysics","25","6812","0.0-2.0-1.7","r60","[""L""]","","","","","","null","key","null","null","6.059999999999945","729.2","410.4","2","1","1","1","1","","",""
"","psychophysics","26","6827","0.0-2.0-3.7-0.7","r60","[""L""]","","","","","","null","key","null","null","6.0600000000004","729.2","410.4","2","1","1","1","1","","",""
"","psychophysics","27","6842","0.0-2.0-0.8","r60","[""L""]","","","","","","null","key","null","null","6.0600000000004","729.2","410.4","2","0","1","0","1","null","",""
"","psychophysics","28","6859","0.0-2.0-1.8","r60","[""L""]","","","","","","null","key","null","null","6.0600000000004","729.2","410.4","2","0","1","0","1","","",""
"","psychophysics","29","6874","0.0-2.0-3.8-0.8","r60","[""L""]","","","","","","null","key","null","null","6.059999999999945","729.2","410.4","2","0","1","0","1","","",""
"","psychophysics","30","6889","0.0-2.0-0.9","r60","[""L""]","","","","","","null","key","null","null","6.050000000000182","729.2","410.4","2","0","1","1","1","null","",""
"","psychophysics","31","6904","0.0-2.0-1.9","r60","[""L""]","","","","","","null","key","null","null","6.0600000000004","729.2","410.4","2","0","1","1","1","","",""
"","psychophysics","32","6921","0.0-2.0-3.9-0.9","r60","[""L""]","","","","","","null","key","null","null","6.059999999999945","729.2","410.4","2","0","1","1","1","","",""
"","psychophysics","33","6939","0.0-2.0-0.10","r60","[""L""]","","","","","","null","key","null","null","12.11999999999989","729.2","410.4","2","0","0","1","1","null","",""
"","psychophysics","34","6951","0.0-2.0-1.10","r60","[""L""]","","","","","","null","key","null","null","6.059999999999491","729.2","410.4","2","0","0","1","1","","",""
"","psychophysics","35","6966","0.0-2.0-3.10-0.10","r60","[""L""]","","","","","","null","key","null","null","6.059999999999491","729.2","410.4","2","0","0","1","1","","",""
"","psychophysics","36","6982","0.0-2.0-0.11","r60","[""L""]","","","","","","null","key","null","null","6.0600000000004","729.2","410.4","1","1","1","1","0","null","",""
"","psychophysics","37","6997","0.0-2.0-1.11","r60","[""L""]","","","","","","null","key","null","null","6.0600000000004","729.2","410.4","1","1","1","1","0","","",""
"","psychophysics","38","7012","0.0-2.0-3.11-0.11","r60","[""L""]","","","","","","null","key","null","null","12.11999999999989","729.2","410.4","1","1","1","1","0","","",""
"","psychophysics","39","7027","0.0-2.0-0.12","r60","[""L""]","","","","","","null","key","null","null","6.059999999999491","729.2","410.4","2","0","0","0","1","null","",""
"","psychophysics","40","7043","0.0-2.0-1.12","r60","[""L""]","","","","","","null","key","null","null","6.059999999999945","729.2","410.4","2","0","0","0","1","","",""
"","psychophysics","41","7059","0.0-2.0-3.12-0.12","r60","[""L""]","","","","","","null","key","null","null","6.059999999999945","729.2","410.4","2","0","0","0","1","","",""
"","psychophysics","42","7075","0.0-2.0-0.13","r60","[""L""]","","","","","","null","key","null","null","6.0600000000004","729.2","410.4","2","0","0","0","1","null","",""
"","psychophysics","43","7091","0.0-2.0-1.13","r60","[""L""]","","","","","","null","key","null","null","6.0600000000004","729.2","410.4","2","0","0","0","1","","",""
"","psychophysics","44","7106","0.0-2.0-3.13-0.13","r60","[""L""]","","","","","","null","key","null","null","6.0600000000004","729.2","410.4","2","0","0","0","1","","",""
"","psychophysics","45","7122","0.0-2.0-0.14","r60","[""L""]","","","","","","null","key","null","null","6.059999999999945","729.2","410.4","2","0","1","1","0","null","",""
"","psychophysics","46","7139","0.0-2.0-1.14","r60","[""L""]","","","","","","null","key","null","null","6.059999999999945","729.2","410.4","2","0","1","1","0","","",""
"","psychophysics","47","7154","0.0-2.0-3.14-0.14","r60","[""L""]","","","","","","null","key","null","null","6.059999999999491","729.2","410.4","2","0","1","1","0","","",""
"","psychophysics","48","7169","0.0-2.0-0.15","r60","[""L""]","","","","","","null","key","null","null","6.069999999999709","729.2","410.4","1","0","0","1","1","null","",""
"","psychophysics","49","7185","0.0-2.0-1.15","r60","[""L""]","","","","","","null","key","null","null","6.0600000000004","729.2","410.4","1","0","0","1","1","","",""
"","psychophysics","50","7200","0.0-2.0-3.15-0.15","r60","[""L""]","","","","","","null","key","null","null","6.059999999999945","729.2","410.4","1","0","0","1","1","","",""
"","psychophysics","51","7217","0.0-2.0-0.16","r60","[""L""]","","","","","","null","key","null","null","12.11999999999989","729.2","410.4","1","0","0","0","1","null","",""
"","psychophysics","52","7232","0.0-2.0-1.16","r60","[""L""]","","","","","","null","key","null","null","6.0600000000004","729.2","410.4","1","0","0","0","1","","",""
"","psychophysics","53","7248","0.0-2.0-3.16-0.16","r60","[""L""]","","","","","","null","key","null","null","6.059999999999945","729.2","410.4","1","0","0","0","1","","",""
"","psychophysics","54","7263","0.0-2.0-0.17","r60","[""L""]","","","","","","null","key","null","null","6.0600000000004","729.2","410.4","2","1","0","1","0","null","",""
"","psychophysics","55","7279","0.0-2.0-1.17","r60","[""L""]","","","","","","null","key","null","null","6.059999999999945","729.2","410.4","2","1","0","1","0","","",""
"","psychophysics","56","7294","0.0-2.0-3.17-0.17","r60","[""L""]","","","","","","null","key","null","null","6.0600000000004","729.2","410.4","2","1","0","1","0","","",""
"","psychophysics","57","7310","0.0-2.0-0.18","r60","[""L""]","","","","","","null","key","null","null","6.059999999999945","729.2","410.4","2","1","0","1","1","null","",""
"","psychophysics","58","7326","0.0-2.0-1.18","r60","[""L""]","","","","","","null","key","null","null","6.059999999999945","729.2","410.4","2","1","0","1","1","","",""
"","psychophysics","59","7353","0.0-2.0-3.18-0.18","r60","[""L""]","","","","","","null","key","null","null","18.17999999999938","729.2","410.4","2","1","0","1","1","","",""
"","psychophysics","60","7372","0.0-2.0-0.19","r60","[""L""]","","","","","","null","key","null","null","6.069999999999709","729.2","410.4","1","0","0","1","1","null","",""
"","psychophysics","61","7388","0.0-2.0-1.19","r60","[""L""]","","","","","","null","key","null","null","6.059999999999945","729.2","410.4","1","0","0","1","1","","",""
"","psychophysics","62","7403","0.0-2.0-3.19-0.19","r60","[""L""]","","","","","","null","key","null","null","6.059999999999491","729.2","410.4","1","0","0","1","1","","",""
"","psychophysics","63","7419","0.0-2.0-0.20","r60","[""L""]","","","","","","null","key","null","null","6.059999999999945","729.2","410.4","2","1","1","1","1","null","",""
"","psychophysics","64","7435","0.0-2.0-1.20","r60","[""L""]","","","","","","null","key","null","null","6.0600000000004","729.2","410.4","2","1","1","1","1","","",""
"","psychophysics","65","7450","0.0-2.0-3.20-0.20","r60","[""L""]","","","","","","null","key","null","null","6.059999999999945","729.2","410.4","2","1","1","1","1","","",""
"","psychophysics","66","7465","0.0-2.0-0.21","r60","[""L""]","","","","","","null","key","null","null","6.0600000000004","729.2","410.4","1","1","0","1","1","null","",""
"","psychophysics","67","7480","0.0-2.0-1.21","r60","[""L""]","","","","","","null","key","null","null","6.059999999999945","729.2","410.4","1","1","0","1","1","","",""
"","psychophysics","68","7496","0.0-2.0-3.21-0.21","r60","[""L""]","","","","","","null","key","null","null","6.059999999999945","729.2","410.4","1","1","0","1","1","","",""
"","psychophysics","69","7512","0.0-2.0-0.22","r60","[""L""]","","","","","","null","key","null","null","6.059999999999491","729.2","410.4","2","0","1","1","1","null","",""
"","psychophysics","70","7528","0.0-2.0-1.22","r60","[""L""]","","","","","","null","key","null","null","6.059999999999945","729.2","410.4","2","0","1","1","1","","",""
"","psychophysics","71","7543","0.0-2.0-3.22-0.22","r60","[""L""]","","","","","","null","key","null","null","6.059999999999491","729.2","410.4","2","0","1","1","1","","",""
"","psychophysics","72","7559","0.0-2.0-0.23","r60","[""L""]","","","","","","null","key","null","null","6.059999999999945","729.2","410.4","1","1","0","0","1","null","",""
"","psychophysics","73","7573","0.0-2.0-1.23","r60","[""L""]","","","","","","null","key","null","null","6.079999999999927","729.2","410.4","1","1","0","0","1","","",""
"","psychophysics","74","7590","0.0-2.0-3.23-0.23","r60","[""L""]","","","","","","null","key","null","null","12.11999999999989","729.2","410.4","1","1","0","0","1","","",""
"","psychophysics","75","7606","0.0-2.0-0.24","r60","[""L""]","","","","","","null","key","null","null","6.059999999999945","729.2","410.4","1","0","0","0","1","null","",""
"","psychophysics","76","7622","0.0-2.0-1.24","r60","[""L""]","","","","","","null","key","null","null","6.0600000000004","729.2","410.4","1","0","0","0","1","","",""
"","psychophysics","77","7637","0.0-2.0-3.24-0.24","r60","[""L""]","","","","","","null","key","null","null","6.0600000000004","729.2","410.4","1","0","0","0","1","","",""
"","psychophysics","78","7653","0.0-2.0-0.25","r60","[""L""]","","","","","","null","key","null","null","12.11999999999989","729.2","410.4","1","1","1","1","0","null","",""
"","psychophysics","79","7669","0.0-2.0-1.25","r60","[""L""]","","","","","","null","key","null","null","6.059999999999491","729.2","410.4","1","1","1","1","0","","",""
"","psychophysics","80","7685","0.0-2.0-3.25-0.25","r60","[""L""]","","","","","","null","key","null","null","6.059999999999945","729.2","410.4","1","1","1","1","0","","",""
"","psychophysics","81","7700","0.0-2.0-0.26","r60","[""L""]","","","","","","null","key","null","null","6.059999999999491","729.2","410.4","2","0","1","0","1","null","",""
"","psychophysics","82","7716","0.0-2.0-1.26","r60","[""L""]","","","","","","null","key","null","null","6.059999999999945","729.2","410.4","2","0","1","0","1","","",""
"","psychophysics","83","7732","0.0-2.0-3.26-0.26","r60","[""L""]","","","","","","null","key","null","null","6.0600000000004","729.2","410.4","2","0","1","0","1","","",""
"","psychophysics","84","7747","0.0-2.0-0.27","r60","[""L""]","","","","","","null","key","null","null","6.0600000000004","729.2","410.4","2","1","0","1","1","null","",""
"","psychophysics","85","7764","0.0-2.0-1.27","r60","[""L""]","","","","","","null","key","null","null","6.059999999999491","729.2","410.4","2","1","0","1","1","","",""
"","psychophysics","86","7779","0.0-2.0-3.27-0.27","r60","[""L""]","","","","","","null","key","null","null","6.059999999999491","729.2","410.4","2","1","0","1","1","","",""
"","psychophysics","87","7795","0.0-2.0-0.28","r60","[""L""]","","","","","","null","key","null","null","6.059999999999945","729.2","410.4","2","0","0","1","0","null","",""
"","psychophysics","88","7831","0.0-2.0-1.28","r60","[""L""]","","","","","","null","key","null","null","30.299999999999272","729.2","410.4","2","0","0","1","0","","",""
"","psychophysics","89","7842","0.0-2.0-3.28-0.28","r60","[""L""]","","","","","","null","key","null","null","6.0600000000004","729.2","410.4","2","0","0","1","0","","",""
"","psychophysics","90","7858","0.0-2.0-0.29","r60","[""L""]","","","","","","null","key","null","null","6.0600000000004","729.2","410.4","1","0","0","1","1","null","",""
"","psychophysics","91","7874","0.0-2.0-1.29","r60","[""L""]","","","","","","null","key","null","null","6.059999999999945","729.2","410.4","1","0","0","1","1","","",""
"","psychophysics","92","7889","0.0-2.0-3.29-0.29","r60","[""L""]","","","","","","null","key","null","null","6.059999999999945","729.2","410.4","1","0","0","1","1","","",""
"","psychophysics","93","7905","0.0-2.0-0.30","r60","[""L""]","","","","","","null","key","null","null","6.0600000000004","729.2","410.4","2","0","1","1","0","null","",""
"","psychophysics","94","7922","0.0-2.0-1.30","r60","[""L""]","","","","","","null","key","null","null","6.059999999999945","729.2","410.4","2","0","1","1","0","","",""
"","psychophysics","95","7937","0.0-2.0-3.30-0.30","r60","[""L""]","","","","","","null","key","null","null","6.0600000000004","729.2","410.4","2","0","1","1","0","","",""
"","psychophysics","96","7954","0.0-2.0-0.31","r60","[""L""]","","","","","","null","key","null","null","6.059999999999945","729.2","410.4","1","1","0","1","1","null","",""
"","psychophysics","97","7969","0.0-2.0-1.31","r60","[""L""]","","","","","","null","key","null","null","6.059999999999945","729.2","410.4","1","1","0","1","1","","",""
"","psychophysics","98","7985","0.0-2.0-3.31-0.31","r60","[""L""]","","","","","","null","key","null","null","6.0600000000004","729.2","410.4","1","1","0","1","1","","",""
"","psychophysics","99","8001","0.0-2.0-0.32","r60","[""L""]","","","","","","null","key","null","null","6.059999999999945","729.2","410.4","2","1","0","1","1","null","",""
"","psychophysics","100","8016","0.0-2.0-1.32","r60","[""L""]","","","","","","null","key","null","null","6.059999999999491","729.2","410.4","2","1","0","1","1","","",""
"","psychophysics","101","8032","0.0-2.0-3.32-0.32","r60","[""L""]","","","","","","null","key","null","null","6.059999999999491","729.2","410.4","2","1","0","1","1","","",""
"","psychophysics","102","8048","0.0-2.0-0.33","r60","[""L""]","","","","","","null","key","null","null","6.059999999999491","729.2","410.4","2","1","0","1","1","null","",""
"","psychophysics","103","8064","0.0-2.0-1.33","r60","[""L""]","","","","","","null","key","null","null","6.06000000000131","729.2","410.4","2","1","0","1","1","","",""
"","psychophysics","104","8079","0.0-2.0-3.33-0.33","r60","[""L""]","","","","","","null","key","null","null","6.059999999999491","729.2","410.4","2","1","0","1","1","","",""
"","psychophysics","105","8095","0.0-2.0-0.34","r60","[""L""]","","","","","","null","key","null","null","6.059999999999491","729.2","410.4","1","1","1","1","0","null","",""
"","psychophysics","106","8111","0.0-2.0-1.34","r60","[""L""]","","","","","","null","key","null","null","6.0600000000004","729.2","410.4","1","1","1","1","0","","",""
"","psychophysics","107","8127","0.0-2.0-3.34-0.34","r60","[""L""]","","","","","","null","key","null","null","6.059999999999491","729.2","410.4","1","1","1","1","0","","",""
"","psychophysics","108","8141","0.0-2.0-0.35","r60","[""L""]","","","","","","null","key","null","null","6.059999999999491","729.2","410.4","1","1","0","1","1","null","",""
"","psychophysics","109","8158","0.0-2.0-1.35","r60","[""L""]","","","","","","null","key","null","null","6.0600000000004","729.2","410.4","1","1","0","1","1","","",""
"","psychophysics","110","8174","0.0-2.0-3.35-0.35","r60","[""L""]","","","","","","null","key","null","null","6.059999999999491","729.2","410.4","1","1","0","1","1","","",""
"","psychophysics","111","8190","0.0-2.0-0.36","r60","[""L""]","","","","","","null","key","null","null","6.059999999999491","729.2","410.4","2","1","1","1","1","null","",""
"","psychophysics","112","8206","0.0-2.0-1.36","r60","[""L""]","","","","","","null","key","null","null","6.059999999999491","729.2","410.4","2","1","1","1","1","","",""
"","psychophysics","113","8222","0.0-2.0-3.36-0.36","r60","[""L""]","","","","","","null","key","null","null","6.06000000000131","729.2","410.4","2","1","1","1","1","","",""
"","psychophysics","114","8238","0.0-2.0-0.37","r60","[""L""]","","","","","","null","key","null","null","6.0600000000004","729.2","410.4","1","0","1","1","1","null","",""
"","psychophysics","115","8254","0.0-2.0-1.37","r60","[""L""]","","","","","","null","key","null","null","6.059999999999491","729.2","410.4","1","0","1","1","1","","",""
"","psychophysics","116","8269","0.0-2.0-3.37-0.37","r60","[""L""]","","","","","","null","key","null","null","6.059999999999491","729.2","410.4","1","0","1","1","1","","",""
"","psychophysics","117","8286","0.0-2.0-0.38","r60","[""L""]","","","","","","null","key","null","null","6.0600000000004","729.2","410.4","2","0","1","1","0","null","",""
"","psychophysics","118","8302","0.0-2.0-1.38","r60","[""L""]","","","","","","null","key","null","null","6.069999999999709","729.2","410.4","2","0","1","1","0","","",""
"","psychophysics","119","8343","0.0-2.0-3.38-0.38","r60","[""L""]","","","","","","null","key","null","null","30.299999999999272","729.2","410.4","2","0","1","1","0","","",""
"","psychophysics","120","8350","0.0-2.0-0.39","r60","[""L""]","","","","","","null","key","null","null","NaN","729.2","410.4","1","1","0","1","0","null","",""
"","psychophysics","121","8366","0.0-2.0-1.39","r60","[""L""]","","","","","","null","key","null","null","6.059999999999491","729.2","410.4","1","1","0","1","0","","",""
"","psychophysics","122","8382","0.0-2.0-3.39-0.39","r60","[""L""]","","","","","","null","key","null","null","6.0600000000004","729.2","410.4","1","1","0","1","0","","",""
"","psychophysics","123","8397","0.0-2.0-0.40","r60","[""L""]","","","","","","null","key","null","null","6.06000000000131","729.2","410.4","2","1","1","0","1","null","",""
"","psychophysics","124","8413","0.0-2.0-1.40","r60","[""L""]","","","","","","null","key","null","null","6.059999999999491","729.2","410.4","2","1","1","0","1","","",""
"","psychophysics","125","8430","0.0-2.0-3.40-0.40","r60","[""L""]","","","","","","null","key","null","null","6.059999999999491","729.2","410.4","2","1","1","0","1","","",""
"","psychophysics","126","8445","0.0-2.0-0.41","r60","[""L""]","","","","","","null","key","null","null","6.059999999999491","729.2","410.4","1","0","1","1","0","null","",""
"","psychophysics","127","8461","0.0-2.0-1.41","r60","[""L""]","","","","","","null","key","null","null","6.0600000000004","729.2","410.4","1","0","1","1","0","","",""
"","psychophysics","128","8476","0.0-2.0-3.41-0.41","r60","[""L""]","","","","","","null","key","null","null","6.059999999999491","729.2","410.4","1","0","1","1","0","","",""
"","psychophysics","129","8492","0.0-2.0-0.42","r60","[""L""]","","","","","","null","key","null","null","6.0600000000004","729.2","410.4","1","1","1","1","0","null","",""
"","psychophysics","130","8508","0.0-2.0-1.42","r60","[""L""]","","","","","","null","key","null","null","6.0600000000004","729.2","410.4","1","1","1","1","0","","",""
"","psychophysics","131","8523","0.0-2.0-3.42-0.42","r60","[""L""]","","","","","","null","key","null","null","NaN","729.2","410.4","1","1","1","1","0","","",""
"","psychophysics","132","8539","0.0-2.0-0.43","r60","[""L""]","","","","","","null","key","null","null","6.069999999999709","729.2","410.4","1","1","0","0","0","null","",""
"","psychophysics","133","8555","0.0-2.0-1.43","r60","[""L""]","","","","","","null","key","null","null","6.06000000000131","729.2","410.4","1","1","0","0","0","","",""
"","psychophysics","134","8569","0.0-2.0-3.43-0.43","r60","[""L""]","","","","","","null","key","null","null","6.059999999999491","729.2","410.4","1","1","0","0","0","","",""
"","psychophysics","135","8585","0.0-2.0-0.44","r60","[""L""]","","","","","","null","key","null","null","NaN","729.2","410.4","2","0","0","1","1","null","",""
"","psychophysics","136","8601","0.0-2.0-1.44","r60","[""L""]","","","","","","null","key","null","null","6.0600000000004","729.2","410.4","2","0","0","1","1","","",""
"","psychophysics","137","8617","0.0-2.0-3.44-0.44","r60","[""L""]","","","","","","null","key","null","null","6.0600000000004","729.2","410.4","2","0","0","1","1","","",""
"","psychophysics","138","8632","0.0-2.0-0.45","r60","[""L""]","","","","","","null","key","null","null","6.059999999999491","729.2","410.4","1","0","1","1","1","null","",""
"","psychophysics","139","8648","0.0-2.0-1.45","r60","[""L""]","","","","","","null","key","null","null","6.059999999999491","729.2","410.4","1","0","1","1","1","","",""
"","psychophysics","140","8663","0.0-2.0-3.45-0.45","r60","[""L""]","","","","","","null","key","null","null","6.06000000000131","729.2","410.4","1","0","1","1","1","","",""
"","psychophysics","141","8679","0.0-2.0-0.46","r60","[""L""]","","","","","","null","key","null","null","6.059999999999491","729.2","410.4","1","0","0","1","0","null","",""
"","psychophysics","142","8694","0.0-2.0-1.46","r60","[""L""]","","","","","","null","key","null","null","NaN","729.2","410.4","1","0","0","1","0","","",""
"","psychophysics","143","8711","0.0-2.0-3.46-0.46","r60","[""L""]","","","","","","null","key","null","null","6.059999999999491","729.2","410.4","1","0","0","1","0","","",""
"","psychophysics","144","8726","0.0-2.0-0.47","r60","[""L""]","","","","","","null","key","null","null","6.0600000000004","729.2","410.4","2","1","0","0","1","null","",""
"","psychophysics","145","8741","0.0-2.0-1.47","r60","[""L""]","","","","","","null","key","null","null","6.06000000000131","729.2","410.4","2","1","0","0","1","","",""
"","psychophysics","146","8756","0.0-2.0-3.47-0.47","r60","[""L""]","","","","","","null","key","null","null","6.069999999999709","729.2","410.4","2","1","0","0","1","","",""
"","psychophysics","147","8773","0.0-2.0-0.48","r60","[""L""]","","","","","","null","key","null","null","6.06000000000131","729.2","410.4","1","1","0","0","0","null","",""
"","psychophysics","148","8789","0.0-2.0-1.48","r60","[""L""]","","","","","","null","key","null","null","6.0600000000004","729.2","410.4","1","1","0","0","0","","",""
"","psychophysics","149","8805","0.0-2.0-3.48-0.48","r60","[""L""]","","","","","","null","key","null","null","6.059999999999491","729.2","410.4","1","1","0","0","0","","",""
"","psychophysics","150","8820","0.0-2.0-0.49","r60","[""L""]","","","","","","null","key","null","null","6.0600000000004","729.2","410.4","2","0","1","1","0","null","",""
"","psychophysics","151","8836","0.0-2.0-1.49","r60","[""L""]","","","","","","null","key","null","null","6.0600000000004","729.2","410.4","2","0","1","1","0","","",""
"","psychophysics","152","8873","0.0-2.0-3.49-0.49","r60","[""L""]","","","","","","null","key","null","null","30.299999999999272","729.2","410.4","2","0","1","1","0","","",""
"","psychophysics","153","8882","0.0-2.0-0.50","r60","[""L""]","","","","","","null","key","null","null","NaN","729.2","410.4","1","1","0","1","0","null","",""
"","psychophysics","154","8897","0.0-2.0-1.50","r60","[""L""]","","","","","","null","key","null","null","6.0600000000004","729.2","410.4","1","1","0","1","0","","",""
"","psychophysics","155","8912","0.0-2.0-3.50-0.50","r60","[""L""]","","","","","","null","key","null","null","6.059999999999491","729.2","410.4","1","1","0","1","0","","",""
"","psychophysics","156","8928","0.0-2.0-0.51","r60","[""L""]","","","","","","null","key","null","null","6.0600000000004","729.2","410.4","1","0","1","1","1","null","",""
"","psychophysics","157","8944","0.0-2.0-1.51","r60","[""L""]","","","","","","null","key","null","null","6.0600000000004","729.2","410.4","1","0","1","1","1","","",""
"","psychophysics","158","8959","0.0-2.0-3.51-0.51","r60","[""L""]","","","","","","null","key","null","null","6.079999999999927","729.2","410.4","1","0","1","1","1","","",""
"","psychophysics","159","8975","0.0-2.0-0.52","r60","[""L""]","","","","","","null","key","null","null","6.0600000000004","729.2","410.4","1","0","0","1","1","null","",""
"","psychophysics","160","8990","0.0-2.0-1.52","r60","[""L""]","","","","","","null","key","null","null","6.06000000000131","729.2","410.4","1","0","0","1","1","","",""
"","psychophysics","161","9006","0.0-2.0-3.52-0.52","r60","[""L""]","","","","","","null","key","null","null","6.059999999999491","729.2","410.4","1","0","0","1","1","","",""
"","psychophysics","162","9023","0.0-2.0-0.53","r60","[""L""]","","","","","","null","key","null","null","6.059999999999491","729.2","410.4","2","1","1","0","0","null","",""
"","psychophysics","163","9038","0.0-2.0-1.53","r60","[""L""]","","","","","","null","key","null","null","6.0600000000004","729.2","410.4","2","1","1","0","0","","",""
"","psychophysics","164","9054","0.0-2.0-3.53-0.53","r60","[""L""]","","","","","","null","key","null","null","6.0600000000004","729.2","410.4","2","1","1","0","0","","",""
"","psychophysics","165","9068","0.0-2.0-0.54","r60","[""L""]","","","","","","null","key","null","null","6.059999999999491","729.2","410.4","1","0","0","0","0","null","",""
"","psychophysics","166","9085","0.0-2.0-1.54","r60","[""L""]","","","","","","null","key","null","null","6.0600000000004","729.2","410.4","1","0","0","0","0","","",""
"","psychophysics","167","9100","0.0-2.0-3.54-0.54","r60","[""L""]","","","","","","null","key","null","null","6.06000000000131","729.2","410.4","1","0","0","0","0","","",""
"","psychophysics","168","9116","0.0-2.0-0.55","r60","[""L""]","","","","","","null","key","null","null","6.059999999999491","729.2","410.4","2","1","1","0","1","null","",""
"","psychophysics","169","9132","0.0-2.0-1.55","r60","[""L""]","","","","","","null","key","null","null","6.059999999999491","729.2","410.4","2","1","1","0","1","","",""
"","psychophysics","170","9147","0.0-2.0-3.55-0.55","r60","[""L""]","","","","","","null","key","null","null","6.059999999999491","729.2","410.4","2","1","1","0","1","","",""
"","psychophysics","171","9162","0.0-2.0-0.56","r60","[""L""]","","","","","","null","key","null","null","6.069999999999709","729.2","410.4","1","0","0","0","1","null","",""
"","psychophysics","172","9177","0.0-2.0-1.56","r60","[""L""]","","","","","","null","key","null","null","6.059999999999491","729.2","410.4","1","0","0","0","1","","",""
"","psychophysics","173","9193","0.0-2.0-3.56-0.56","r60","[""L""]","","","","","","null","key","null","null","6.0600000000004","729.2","410.4","1","0","0","0","1","","",""
"","psychophysics","174","9209","0.0-2.0-0.57","r60","[""L""]","","","","","","null","key","null","null","6.059999999999491","729.2","410.4","2","0","0","0","1","null","",""
"","psychophysics","175","9225","0.0-2.0-1.57","r60","[""L""]","","","","","","null","key","null","null","6.059999999999491","729.2","410.4","2","0","0","0","1","","",""
"","psychophysics","176","9240","0.0-2.0-3.57-0.57","r60","[""L""]","","","","","","null","key","null","null","6.06000000000131","729.2","410.4","2","0","0","0","1","","",""
"","psychophysics","177","9256","0.0-2.0-0.58","r60","[""L""]","","","","","","null","key","null","null","6.0600000000004","729.2","410.4","2","0","1","1","0","null","",""
"","psychophysics","178","9273","0.0-2.0-1.58","r60","[""L""]","","","","","","null","key","null","null","6.059999999999491","729.2","410.4","2","0","1","1","0","","",""
"","psychophysics","179","9288","0.0-2.0-3.58-0.58","r60","[""L""]","","","","","","null","key","null","null","6.059999999999491","729.2","410.4","2","0","1","1","0","","",""
"","psychophysics","180","9304","0.0-2.0-0.59","r60","[""L""]","","","","","","null","key","null","null","6.059999999999491","729.2","410.4","2","1","1","1","1","null","",""
"","psychophysics","181","9319","0.0-2.0-1.59","r60","[""L""]","","","","","","null","key","null","null","6.059999999999491","729.2","410.4","2","1","1","1","1","","",""
"","psychophysics","182","9335","0.0-2.0-3.59-0.59","r60","[""L""]","","","","","","null","key","null","null","6.059999999999491","729.2","410.4","2","1","1","1","1","","",""
"","psychophysics","183","9351","0.0-2.0-0.60","r60","[""L""]","","","","","","null","key","null","null","12.119999999998981","729.2","410.4","2","1","1","0","1","null","",""
"","psychophysics","184","9366","0.0-2.0-1.60","r60","[""L""]","","","","","","null","key","null","null","6.059999999999491","729.2","410.4","2","1","1","0","1","","",""
"","psychophysics","185","9381","0.0-2.0-3.60-0.60","r60","[""L""]","","","","","","null","key","null","null","6.059999999999491","729.2","410.4","2","1","1","0","1","","",""
"","psychophysics","186","9398","0.0-2.0-0.61","r60","[""L""]","","","","","","null","key","null","null","6.059999999999491","729.2","410.4","1","1","0","0","1","null","",""
"","psychophysics","187","9414","0.0-2.0-1.61","r60","[""L""]","","","","","","null","key","null","null","6.0600000000004","729.2","410.4","1","1","0","0","1","","",""
"","psychophysics","188","9430","0.0-2.0-3.61-0.61","r60","[""L""]","","","","","","null","key","null","null","6.059999999999491","729.2","410.4","1","1","0","0","1","","",""
"","psychophysics","189","9446","0.0-2.0-0.62","r60","[""L""]","","","","","","null","key","null","null","6.059999999999491","729.2","410.4","2","0","1","0","1","null","",""
"","psychophysics","190","9461","0.0-2.0-1.62","r60","[""L""]","","","","","","null","key","null","null","6.0600000000004","729.2","410.4","2","0","1","0","1","","",""
"","psychophysics","191","9478","0.0-2.0-3.62-0.62","r60","[""L""]","","","","","","null","key","null","null","6.0600000000004","729.2","410.4","2","0","1","0","1","","",""
"","psychophysics","192","9493","0.0-2.0-0.63","r60","[""L""]","","","","","","null","key","null","null","6.059999999999491","729.2","410.4","1","1","1","0","1","null","",""
"","psychophysics","193","9509","0.0-2.0-1.63","r60","[""L""]","","","","","","null","key","null","null","6.059999999999491","729.2","410.4","1","1","1","0","1","","",""
"","psychophysics","194","9524","0.0-2.0-3.63-0.63","r60","[""L""]","","","","","","null","key","null","null","6.059999999999491","729.2","410.4","1","1","1","0","1","","",""
"","psychophysics","195","9540","0.0-2.0-0.64","r60","[""L""]","","","","","","null","key","null","null","6.0600000000004","729.2","410.4","1","1","1","1","1","null","",""
"","psychophysics","196","9557","0.0-2.0-1.64","r60","[""L""]","","","","","","null","key","null","null","6.0600000000004","729.2","410.4","1","1","1","1","1","","",""
"","psychophysics","197","9571","0.0-2.0-3.64-0.64","r60","[""L""]","","","","","","null","key","null","null","6.079999999999927","729.2","410.4","1","1","1","1","1","","",""
"","psychophysics","198","9588","0.0-2.0-0.65","r60","[""L""]","","","","","","null","key","null","null","6.0600000000004","729.2","410.4","2","1","0","0","1","null","",""
"","psychophysics","199","9603","0.0-2.0-1.65","r60","[""L""]","","","","","","null","key","null","null","6.059999999999491","729.2","410.4","2","1","0","0","1","","",""
"","psychophysics","200","9619","0.0-2.0-3.65-0.65","r60","[""L""]","","","","","","null","key","null","null","6.059999999999491","729.2","410.4","2","1","0","0","1","","",""
"","psychophysics","201","9634","0.0-2.0-0.66","r60","[""L""]","","","","","","null","key","null","null","6.06000000000131","729.2","410.4","1","1","0","1","0","null","",""
"","psychophysics","202","9650","0.0-2.0-1.66","r60","[""L""]","","","","","","null","key","null","null","6.0600000000004","729.2","410.4","1","1","0","1","0","","",""
"","psychophysics","203","9666","0.0-2.0-3.66-0.66","r60","[""L""]","","","","","","null","key","null","null","6.059999999999491","729.2","410.4","1","1","0","1","0","","",""
"","psychophysics","204","9682","0.0-2.0-0.67","r60","[""L""]","","","","","","null","key","null","null","6.059999999999491","729.2","410.4","2","0","1","1","0","null","",""
"","psychophysics","205","9698","0.0-2.0-1.67","r60","[""L""]","","","","","","null","key","null","null","6.0600000000004","729.2","410.4","2","0","1","1","0","","",""
"","psychophysics","206","9714","0.0-2.0-3.67-0.67","r60","[""L""]","","","","","","null","key","null","null","6.0600000000004","729.2","410.4","2","0","1","1","0","","",""
"","psychophysics","207","9730","0.0-2.0-0.68","r60","[""L""]","","","","","","null","key","null","null","6.059999999999491","729.2","410.4","1","1","1","1","0","null","",""
"","psychophysics","208","9745","0.0-2.0-1.68","r60","[""L""]","","","","","","null","key","null","null","6.0600000000004","729.2","410.4","1","1","1","1","0","","",""
"","psychophysics","209","9761","0.0-2.0-3.68-0.68","r60","[""L""]","","","","","","null","key","null","null","6.06000000000131","729.2","410.4","1","1","1","1","0","","",""
"","psychophysics","210","9775","0.0-2.0-0.69","r60","[""L""]","","","","","","null","key","null","null","6.069999999999709","729.2","410.4","2","1","0","1","0","null","",""
"","psychophysics","211","9791","0.0-2.0-1.69","r60","[""L""]","","","","","","null","key","null","null","6.06000000000131","729.2","410.4","2","1","0","1","0","","",""
"","psychophysics","212","9806","0.0-2.0-3.69-0.69","r60","[""L""]","","","","","","null","key","null","null","12.1200000000008","729.2","410.4","2","1","0","1","0","","",""
"","psychophysics","213","9822","0.0-2.0-0.70","r60","[""L""]","","","","","","null","key","null","null","6.059999999999491","729.2","410.4","2","0","1","0","1","null","",""
"","psychophysics","214","9838","0.0-2.0-1.70","r60","[""L""]","","","","","","null","key","null","null","6.0600000000004","729.2","410.4","2","0","1","0","1","","",""
"","psychophysics","215","9854","0.0-2.0-3.70-0.70","r60","[""L""]","","","","","","null","key","null","null","6.0600000000004","729.2","410.4","2","0","1","0","1","","",""
"","psychophysics","216","9869","0.0-2.0-0.71","r60","[""L""]","","","","","","null","key","null","null","6.059999999999491","729.2","410.4","2","1","1","0","1","null","",""
"","psychophysics","217","9885","0.0-2.0-1.71","r60","[""L""]","","","","","","null","key","null","null","6.059999999999491","729.2","410.4","2","1","1","0","1","","",""
"","psychophysics","218","9901","0.0-2.0-3.71-0.71","r60","[""L""]","","","","","","null","key","null","null","6.059999999999491","729.2","410.4","2","1","1","0","1","","",""
"","psychophysics","219","9916","0.0-2.0-0.72","r60","[""L""]","","","","","","null","key","null","null","6.0600000000004","729.2","410.4","2","1","1","1","0","null","",""
"","psychophysics","220","9932","0.0-2.0-1.72","r60","[""L""]","","","","","","null","key","null","null","6.059999999999491","729.2","410.4","2","1","1","1","0","","",""
"","psychophysics","221","9948","0.0-2.0-3.72-0.72","r60","[""L""]","","","","","","null","key","null","null","6.059999999999491","729.2","410.4","2","1","1","1","0","","",""
"","psychophysics","222","9963","0.0-2.0-0.73","r60","[""L""]","","","","","","null","key","null","null","6.0600000000004","729.2","410.4","1","0","0","1","1","null","",""
"","psychophysics","223","9979","0.0-2.0-1.73","r60","[""L""]","","","","","","null","key","null","null","6.059999999999491","729.2","410.4","1","0","0","1","1","","",""
"","psychophysics","224","9995","0.0-2.0-3.73-0.73","r60","[""L""]","","","","","","null","key","null","null","6.0600000000004","729.2","410.4","1","0","0","1","1","","",""
"","psychophysics","225","10011","0.0-2.0-0.74","r60","[""L""]","","","","","","null","key","null","null","6.06000000000131","729.2","410.4","1","1","0","0","1","null","",""
"","psychophysics","226","10026","0.0-2.0-1.74","r60","[""L""]","","","","","","null","key","null","null","6.059999999999491","729.2","410.4","1","1","0","0","1","","",""
"","psychophysics","227","10042","0.0-2.0-3.74-0.74","r60","[""L""]","","","","","","null","key","null","null","6.059999999999491","729.2","410.4","1","1","0","0","1","","",""
"","psychophysics","228","10057","0.0-2.0-0.75","r60","[""L""]","","","","","","null","key","null","null","6.059999999999491","729.2","410.4","2","1","0","1","1","null","",""
"","psychophysics","229","10073","0.0-2.0-1.75","r60","[""L""]","","","","","","null","key","null","null","6.0600000000004","729.2","410.4","2","1","0","1","1","","",""
"","psychophysics","230","10118","0.0-2.0-3.75-0.75","r60","[""L""]","","","","","","null","key","null","null","18.18000000000029","729.2","410.4","2","1","0","1","1","","",""
"","psychophysics","231","10135","0.0-2.0-0.76","r60","[""L""]","","","","","","null","key","null","null","6.059999999999491","729.2","410.4","2","0","0","1","1","null","",""
"","psychophysics","232","10151","0.0-2.0-1.76","r60","[""L""]","","","","","","null","key","null","null","6.059999999999491","729.2","410.4","2","0","0","1","1","","",""
"","psychophysics","233","10167","0.0-2.0-3.76-0.76","r60","[""L""]","","","","","","null","key","null","null","6.059999999999491","729.2","410.4","2","0","0","1","1","","",""
"","psychophysics","234","10183","0.0-2.0-0.77","r60","[""L""]","","","","","","null","key","null","null","6.059999999999491","729.2","410.4","2","1","1","1","1","null","",""
"","psychophysics","235","10198","0.0-2.0-1.77","r60","[""L""]","","","","","","null","key","null","null","6.059999999999491","729.2","410.4","2","1","1","1","1","","",""
"","psychophysics","236","10262","0.0-2.0-3.77-0.77","r60","[""L""]","","","","","","null","key","null","null","54.539999999999054","729.2","410.4","2","1","1","1","1","","",""
"","psychophysics","237","10277","0.0-2.0-0.78","r60","[""L""]","","","","","","null","key","null","null","6.059999999999491","729.2","410.4","1","1","0","1","1","null","",""
"","psychophysics","238","10294","0.0-2.0-1.78","r60","[""L""]","","","","","","null","key","null","null","6.06000000000131","729.2","410.4","1","1","0","1","1","","",""
"","psychophysics","239","10309","0.0-2.0-3.78-0.78","r60","[""L""]","","","","","","null","key","null","null","6.059999999999491","729.2","410.4","1","1","0","1","1","","",""
"","psychophysics","240","10324","0.0-2.0-0.79","r60","[""L""]","","","","","","null","key","null","null","6.059999999999491","729.2","410.4","1","1","0","1","0","null","",""
"","psychophysics","241","10340","0.0-2.0-1.79","r60","[""L""]","","","","","","null","key","null","null","6.0600000000004","729.2","410.4","1","1","0","1","0","","",""
"","psychophysics","242","10355","0.0-2.0-3.79-0.79","r60","[""L""]","","","","","","null","key","null","null","6.059999999999491","729.2","410.4","1","1","0","1","0","","",""
"","psychophysics","243","10370","0.0-2.0-0.80","r60","[""L""]","","","","","","null","key","null","null","6.059999999999491","729.2","410.4","1","1","1","1","1","null","",""
"","psychophysics","244","10387","0.0-2.0-1.80","r60","[""L""]","","","","","","null","key","null","null","6.0600000000004","729.2","410.4","1","1","1","1","1","","",""
"","psychophysics","245","10401","0.0-2.0-3.80-0.80","r60","[""L""]","","","","","","null","key","null","null","NaN","729.2","410.4","1","1","1","1","1","","",""
"","psychophysics","246","10417","0.0-2.0-0.81","r60","[""L""]","","","","","","null","key","null","null","6.059999999999491","729.2","410.4","2","1","1","1","1","null","",""
"","psychophysics","247","10433","0.0-2.0-1.81","r60","[""L""]","","","","","","null","key","null","null","6.059999999999491","729.2","410.4","2","1","1","1","1","","",""
"","psychophysics","248","10448","0.0-2.0-3.81-0.81","r60","[""L""]","","","","","","null","key","null","null","6.0700000000006185","729.2","410.4","2","1","1","1","1","","",""
"","psychophysics","249","10464","0.0-2.0-0.82","r60","[""L""]","","","","","","null","key","null","null","6.059999999999491","729.2","410.4","1","0","1","0","1","null","",""
"","psychophysics","250","10481","0.0-2.0-1.82","r60","[""L""]","","","","","","null","key","null","null","6.0600000000004","729.2","410.4","1","0","1","0","1","","",""
"","psychophysics","251","10496","0.0-2.0-3.82-0.82","r60","[""L""]","","","","","","null","key","null","null","6.0600000000004","729.2","410.4","1","0","1","0","1","","",""
"","psychophysics","252","10512","0.0-2.0-0.83","r60","[""L""]","","","","","","null","key","null","null","6.059999999999491","729.2","410.4","2","1","1","1","1","null","",""
"","psychophysics","253","10528","0.0-2.0-1.83","r60","[""L""]","","","","","","null","key","null","null","6.059999999999491","729.2","410.4","2","1","1","1","1","","",""
"","psychophysics","254","10545","0.0-2.0-3.83-0.83","r60","[""L""]","","","","","","null","key","null","null","6.0600000000004","729.2","410.4","2","1","1","1","1","","",""
"","psychophysics","255","10561","0.0-2.0-0.84","r60","[""L""]","","","","","","null","key","null","null","6.06000000000131","729.2","410.4","1","1","0","1","1","null","",""
"","psychophysics","256","10576","0.0-2.0-1.84","r60","[""L""]","","","","","","null","key","null","null","6.059999999999491","729.2","410.4","1","1","0","1","1","","",""
"","psychophysics","257","10592","0.0-2.0-3.84-0.84","r60","[""L""]","","","","","","null","key","null","null","6.059999999999491","729.2","410.4","1","1","0","1","1","","",""
"","psychophysics","258","10609","0.0-2.0-0.85","r60","[""L""]","","","","","","null","key","null","null","6.059999999999491","729.2","410.4","2","0","0","1","1","null","",""
"","psychophysics","259","10624","0.0-2.0-1.85","r60","[""L""]","","","","","","null","key","null","null","6.0600000000004","729.2","410.4","2","0","0","1","1","","",""
"","psychophysics","260","10639","0.0-2.0-3.85-0.85","r60","[""L""]","","","","","","null","key","null","null","6.059999999999491","729.2","410.4","2","0","0","1","1","","",""
"","psychophysics","261","10655","0.0-2.0-0.86","r60","[""L""]","","","","","","null","key","null","null","6.0600000000004","729.2","410.4","1","0","1","0","1","null","",""
"","psychophysics","262","10670","0.0-2.0-1.86","r60","[""L""]","","","","","","null","key","null","null","6.059999999999491","729.2","410.4","1","0","1","0","1","","",""
"","psychophysics","263","10686","0.0-2.0-3.86-0.86","r60","[""L""]","","","","","","null","key","null","null","6.059999999999491","729.2","410.4","1","0","1","0","1","","",""
"","psychophysics","264","10702","0.0-2.0-0.87","r60","[""L""]","","","","","","null","key","null","null","6.059999999999491","729.2","410.4","2","0","0","0","0","null","",""
"","psychophysics","265","10717","0.0-2.0-1.87","r60","[""L""]","","","","","","null","key","null","null","6.06000000000131","729.2","410.4","2","0","0","0","0","","",""
"","psychophysics","266","10732","0.0-2.0-3.87-0.87","r60","[""L""]","","","","","","null","key","null","null","6.059999999999491","729.2","410.4","2","0","0","0","0","","",""
"","psychophysics","267","10748","0.0-2.0-0.88","r60","[""L""]","","","","","","null","key","null","null","6.059999999999491","729.2","410.4","2","1","0","1","1","null","",""
"","psychophysics","268","10763","0.0-2.0-1.88","r60","[""L""]","","","","","","null","key","null","null","6.0600000000004","729.2","410.4","2","1","0","1","1","","",""
"","psychophysics","269","10780","0.0-2.0-3.88-0.88","r60","[""L""]","","","","","","null","key","null","null","6.059999999999491","729.2","410.4","2","1","0","1","1","","",""
"","psychophysics","270","10796","0.0-2.0-0.89","r60","[""L""]","","","","","","null","key","null","null","6.059999999999491","729.2","410.4","2","0","1","1","1","null","",""
"","psychophysics","271","10812","0.0-2.0-1.89","r60","[""L""]","","","","","","null","key","null","null","6.059999999999491","729.2","410.4","2","0","1","1","1","","",""
"","psychophysics","272","10860","0.0-2.0-3.89-0.89","r60","[""L""]","","","","","","null","key","null","null","42.42000000000007","729.2","410.4","2","0","1","1","1","","",""
"","psychophysics","273","10873","0.0-2.0-0.90","r60","[""L""]","","","","","","null","key","null","null","6.059999999999491","729.2","410.4","1","1","0","1","0","null","",""
"","psychophysics","274","10889","0.0-2.0-1.90","r60","[""L""]","","","","","","null","key","null","null","6.0600000000004","729.2","410.4","1","1","0","1","0","","",""
"","psychophysics","275","10905","0.0-2.0-3.90-0.90","r60","[""L""]","","","","","","null","key","null","null","6.059999999999491","729.2","410.4","1","1","0","1","0","","",""
"","psychophysics","276","10921","0.0-2.0-0.91","r60","[""L""]","","","","","","null","key","null","null","6.0600000000004","729.2","410.4","2","1","1","1","0","null","",""
"","psychophysics","277","10936","0.0-2.0-1.91","r60","[""L""]","","","","","","null","key","null","null","6.059999999999491","729.2","410.4","2","1","1","1","0","","",""
"","psychophysics","278","10951","0.0-2.0-3.91-0.91","r60","[""L""]","","","","","","null","key","null","null","6.059999999999491","729.2","410.4","2","1","1","1","0","","",""
"","psychophysics","279","10967","0.0-2.0-0.92","r60","[""L""]","","","","","","null","key","null","null","6.059999999999491","729.2","410.4","1","1","1","1","1","null","",""
"","psychophysics","280","10983","0.0-2.0-1.92","r60","[""L""]","","","","","","null","key","null","null","6.0600000000004","729.2","410.4","1","1","1","1","1","","",""
"","psychophysics","281","10998","0.0-2.0-3.92-0.92","r60","[""L""]","","","","","","null","key","null","null","6.059999999999491","729.2","410.4","1","1","1","1","1","","",""
"","psychophysics","282","11013","0.0-2.0-0.93","r60","[""L""]","","","","","","null","key","null","null","6.059999999999491","729.2","410.4","2","1","0","1","0","null","",""
"","psychophysics","283","11030","0.0-2.0-1.93","r60","[""L""]","","","","","","null","key","null","null","6.0600000000004","729.2","410.4","2","1","0","1","0","","",""
"","psychophysics","284","11045","0.0-2.0-3.93-0.93","r60","[""L""]","","","","","","null","key","null","null","6.06000000000131","729.2","410.4","2","1","0","1","0","","",""
"","psychophysics","285","11060","0.0-2.0-0.94","r60","[""L""]","","","","","","null","key","null","null","6.059999999999491","729.2","410.4","2","1","0","0","1","null","",""
"","psychophysics","286","11075","0.0-2.0-1.94","r60","[""L""]","","","","","","null","key","null","null","6.059999999999491","729.2","410.4","2","1","0","0","1","","",""
"","psychophysics","287","11091","0.0-2.0-3.94-0.94","r60","[""L""]","","","","","","null","key","null","null","6.0600000000004","729.2","410.4","2","1","0","0","1","","",""
"","psychophysics","288","11107","0.0-2.0-0.95","r60","[""L""]","","","","","","null","key","null","null","6.059999999999491","729.2","410.4","2","0","1","0","1","null","",""
"","psychophysics","289","11122","0.0-2.0-1.95","r60","[""L""]","","","","","","null","key","null","null","6.0600000000004","729.2","410.4","2","0","1","0","1","","",""
"","psychophysics","290","11137","0.0-2.0-3.95-0.95","r60","[""L""]","","","","","","null","key","null","null","6.059999999999491","729.2","410.4","2","0","1","0","1","","",""
"","psychophysics","291","11153","0.0-2.0-0.96","r60","[""L""]","","","","","","null","key","null","null","6.059999999999491","729.2","410.4","1","1","0","1","1","null","",""
"","psychophysics","292","11170","0.0-2.0-1.96","r60","[""L""]","","","","","","null","key","null","null","6.059999999999491","729.2","410.4","1","1","0","1","1","","",""
"","psychophysics","293","11185","0.0-2.0-3.96-0.96","r60","[""L""]","","","","","","null","key","null","null","NaN","729.2","410.4","1","1","0","1","1","","",""
"","psychophysics","294","11201","0.0-2.0-0.97","r60","[""L""]","","","","","","null","key","null","null","6.0600000000004","729.2","410.4","2","0","1","0","1","null","",""
"","psychophysics","295","11216","0.0-2.0-1.97","r60","[""L""]","","","","","","null","key","null","null","6.059999999999491","729.2","410.4","2","0","1","0","1","","",""
"","psychophysics","296","11232","0.0-2.0-3.97-0.97","r60","[""L""]","","","","","","null","key","null","null","6.059999999999491","729.2","410.4","2","0","1","0","1","","",""
"","psychophysics","297","11248","0.0-2.0-0.98","r60","[""L""]","","","","","","null","key","null","null","6.0600000000004","729.2","410.4","1","1","0","1","1","null","",""
"","psychophysics","298","11263","0.0-2.0-1.98","r60","[""L""]","","","","","","null","key","null","null","6.06000000000131","729.2","410.4","1","1","0","1","1","","",""
"","psychophysics","299","11279","0.0-2.0-3.98-0.98","r60","[""L""]","","","","","","null","key","null","null","6.059999999999491","729.2","410.4","1","1","0","1","1","","",""
"","psychophysics","300","11295","0.0-2.0-0.99","r60","[""L""]","","","","","","null","key","null","null","6.059999999999491","729.2","410.4","2","0","0","1","1","null","",""
"","psychophysics","301","11310","0.0-2.0-1.99","r60","[""L""]","","","","","","null","key","null","null","6.0700000000006185","729.2","410.4","2","0","0","1","1","","",""
"","psychophysics","302","11325","0.0-2.0-3.99-0.99","r60","[""L""]","","","","","","null","key","null","null","6.059999999999491","729.2","410.4","2","0","0","1","1","","",""
"","html-keyboard-response","303","11340","0.0-2.0-4.99-0.99","r60","[""L""]","","","","","","null","","","null","","","","","","","","","","<p>You have finished block 1 of 5.<p>You correctly predicted 0% of the races.<p>On the next screen, you will be given a 30 second break. Press the <b>g</b> key to start your break.",""
"","html-keyboard-response","304","11356","0.0-2.0-4.99-1.99-0.99","r60","[""L""]","","","","","","null","","","null","","","","","","","","","","<p>The experiment will resume in 30 seconds. ",""
"","html-keyboard-response","305","11372","0.0-2.0-4.99-1.99-1.99","r60","[""L""]","","","","","","null","","","null","","","","","","","","","","<p>The experiment will resume in 29 seconds. ",""
"","html-keyboard-response","306","11388","0.0-2.0-4.99-1.99-2.99","r60","[""L""]","","","","","","null","","","null","","","","","","","","","","<p>The experiment will resume in 28 seconds. ",""
"","html-keyboard-response","307","11404","0.0-2.0-4.99-1.99-3.99","r60","[""L""]","","","","","","null","","","null","","","","","","","","","","<p>The experiment will resume in 27 seconds. ",""
"","html-keyboard-response","308","11419","0.0-2.0-4.99-1.99-4.99","r60","[""L""]","","","","","","null","","","null","","","","","","","","","","<p>The experiment will resume in 26 seconds. ",""
"","html-keyboard-response","309","11436","0.0-2.0-4.99-1.99-5.99","r60","[""L""]","","","","","","null","","","null","","","","","","","","","","<p>The experiment will resume in 25 seconds. ",""
"","html-keyboard-response","310","11450","0.0-2.0-4.99-1.99-6.99","r60","[""L""]","","","","","","null","","","null","","","","","","","","","","<p>The experiment will resume in 24 seconds. ",""
"","html-keyboard-response","311","11466","0.0-2.0-4.99-1.99-7.99","r60","[""L""]","","","","","","null","","","null","","","","","","","","","","<p>The experiment will resume in 23 seconds. ",""
"","html-keyboard-response","312","11483","0.0-2.0-4.99-1.99-8.99","r60","[""L""]","","","","","","null","","","null","","","","","","","","","","<p>The experiment will resume in 22 seconds. ",""
"","html-keyboard-response","313","11498","0.0-2.0-4.99-1.99-9.99","r60","[""L""]","","","","","","null","","","null","","","","","","","","","","<p>The experiment will resume in 21 seconds. ",""
"","html-keyboard-response","314","11514","0.0-2.0-4.99-1.99-10.99","r60","[""L""]","","","","","","null","","","null","","","","","","","","","","<p>The experiment will resume in 20 seconds. ",""
"","html-keyboard-response","315","11530","0.0-2.0-4.99-1.99-11.99","r60","[""L""]","","","","","","null","","","null","","","","","","","","","","<p>The experiment will resume in 19 seconds. ",""
"","html-keyboard-response","316","11543","0.0-2.0-4.99-1.99-12.99","r60","[""L""]","","","","","","null","","","null","","","","","","","","","","<p>The experiment will resume in 18 seconds. ",""
"","html-keyboard-response","317","11559","0.0-2.0-4.99-1.99-13.99","r60","[""L""]","","","","","","null","","","null","","","","","","","","","","<p>The experiment will resume in 17 seconds. ",""
"","html-keyboard-response","318","11575","0.0-2.0-4.99-1.99-14.99","r60","[""L""]","","","","","","null","","","null","","","","","","","","","","<p>The experiment will resume in 16 seconds. ",""
"","html-keyboard-response","319","11591","0.0-2.0-4.99-1.99-15.99","r60","[""L""]","","","","","","null","","","null","","","","","","","","","","<p>The experiment will resume in 15 seconds. ",""
"","html-keyboard-response","320","11606","0.0-2.0-4.99-1.99-16.99","r60","[""L""]","","","","","","null","","","null","","","","","","","","","","<p>The experiment will resume in 14 seconds. ",""
"","html-keyboard-response","321","11621","0.0-2.0-4.99-1.99-17.99","r60","[""L""]","","","","","","null","","","null","","","","","","","","","","<p>The experiment will resume in 13 seconds. ",""
"","html-keyboard-response","322","11636","0.0-2.0-4.99-1.99-18.99","r60","[""L""]","","","","","","null","","","null","","","","","","","","","","<p>The experiment will resume in 12 seconds. ",""
"","html-keyboard-response","323","11653","0.0-2.0-4.99-1.99-19.99","r60","[""L""]","","","","","","null","","","null","","","","","","","","","","<p>The experiment will resume in 11 seconds. ",""
"","html-keyboard-response","324","11669","0.0-2.0-4.99-1.99-20.99","r60","[""L""]","","","","","","null","","","null","","","","","","","","","","<p>The experiment will resume in 10 seconds. ",""
"","html-keyboard-response","325","11685","0.0-2.0-4.99-1.99-21.99","r60","[""L""]","","","","","","null","","","null","","","","","","","","","","<p>The experiment will resume in 9 seconds. ",""
"","html-keyboard-response","326","11700","0.0-2.0-4.99-1.99-22.99","r60","[""L""]","","","","","","null","","","null","","","","","","","","","","<p>The experiment will resume in 8 seconds. ",""
"","html-keyboard-response","327","11717","0.0-2.0-4.99-1.99-23.99","r60","[""L""]","","","","","","null","","","null","","","","","","","","","","<p>The experiment will resume in 7 seconds. ",""
"","html-keyboard-response","328","11733","0.0-2.0-4.99-1.99-24.99","r60","[""L""]","","","","","","null","","","null","","","","","","","","","","<p>The experiment will resume in 6 seconds. ",""
"","html-keyboard-response","329","11749","0.0-2.0-4.99-1.99-25.99","r60","[""L""]","","","","","","null","","","null","","","","","","","","","","<p>The experiment will resume in 5 seconds. ",""
"","html-keyboard-response","330","11764","0.0-2.0-4.99-1.99-26.99","r60","[""L""]","","","","","","null","","","null","","","","","","","","","","<p>The experiment will resume in 4 seconds. ",""
"","html-keyboard-response","331","11780","0.0-2.0-4.99-1.99-27.99","r60","[""L""]","","","","","","null","","","null","","","","","","","","","","<p>The experiment will resume in 3 seconds. ",""
"","html-keyboard-response","332","11795","0.0-2.0-4.99-1.99-28.99","r60","[""L""]","","","","","","null","","","null","","","","","","","","","","<p>The experiment will resume in 2 seconds. ",""
"","html-keyboard-response","333","11812","0.0-2.0-4.99-1.99-29.99","r60","[""L""]","","","","","","null","","","null","","","","","","","","","","<p>The experiment will resume in 1 seconds. ",""
"","psychophysics","334","11827","0.0-2.0-0.100","r60","[""L""]","","","","","","null","key","null","null","5.390000000000327","729.2","410.4","1","0","0","0","1","null","",""
"","psychophysics","335","11842","0.0-2.0-1.100","r60","[""L""]","","","","","","null","key","null","null","6.0600000000004","729.2","410.4","1","0","0","0","1","","",""
"","psychophysics","336","11858","0.0-2.0-3.100-0.100","r60","[""L""]","","","","","","null","key","null","null","6.059999999999491","729.2","410.4","1","0","0","0","1","","",""
"","psychophysics","337","11873","0.0-2.0-0.101","r60","[""L""]","","","","","","null","key","null","null","6.059999999999491","729.2","410.4","1","1","1","1","1","null","",""
"","psychophysics","338","11889","0.0-2.0-1.101","r60","[""L""]","","","","","","null","key","null","null","6.06000000000131","729.2","410.4","1","1","1","1","1","","",""
"","psychophysics","339","11904","0.0-2.0-3.101-0.101","r60","[""L""]","","","","","","null","key","null","null","6.0600000000004","729.2","410.4","1","1","1","1","1","","",""
"","psychophysics","340","11920","0.0-2.0-0.102","r60","[""L""]","","","","","","null","key","null","null","6.059999999999491","729.2","410.4","2","0","0","0","0","null","",""
"","psychophysics","341","11934","0.0-2.0-1.102","r60","[""L""]","","","","","","null","key","null","null","6.059999999999491","729.2","410.4","2","0","0","0","0","","",""
"","psychophysics","342","11951","0.0-2.0-3.102-0.102","r60","[""L""]","","","","","","null","key","null","null","6.0600000000004","729.2","410.4","2","0","0","0","0","","",""
"","psychophysics","343","11966","0.0-2.0-0.103","r60","[""L""]","","","","","","null","key","null","null","6.059999999999491","729.2","410.4","1","0","0","1","1","null","",""
"","psychophysics","344","11982","0.0-2.0-1.103","r60","[""L""]","","","","","","null","key","null","null","6.059999999999491","729.2","410.4","1","0","0","1","1","","",""
"","psychophysics","345","11997","0.0-2.0-3.103-0.103","r60","[""L""]","","","","","","null","key","null","null","6.06000000000131","729.2","410.4","1","0","0","1","1","","",""
"","psychophysics","346","12013","0.0-2.0-0.104","r60","[""L""]","","","","","","null","key","null","null","6.069999999999709","729.2","410.4","2","1","1","0","1","null","",""
"","psychophysics","347","12028","0.0-2.0-1.104","r60","[""L""]","","","","","","null","key","null","null","6.059999999999491","729.2","410.4","2","1","1","0","1","","",""
"","psychophysics","348","12044","0.0-2.0-3.104-0.104","r60","[""L""]","","","","","","null","key","null","null","6.0600000000004","729.2","410.4","2","1","1","0","1","","",""
"","psychophysics","349","12060","0.0-2.0-0.105","r60","[""L""]","","","","","","null","key","null","null","6.0600000000004","729.2","410.4","1","0","1","1","0","null","",""
"","psychophysics","350","12075","0.0-2.0-1.105","r60","[""L""]","","","","","","null","key","null","null","6.059999999999491","729.2","410.4","1","0","1","1","0","","",""
"","psychophysics","351","12091","0.0-2.0-3.105-0.105","r60","[""L""]","","","","","","null","key","null","null","6.0600000000004","729.2","410.4","1","0","1","1","0","","",""
"","psychophysics","352","12108","0.0-2.0-0.106","r60","[""L""]","","","","","","null","key","null","null","6.0600000000004","729.2","410.4","1","1","0","1","1","null","",""
"","psychophysics","353","12123","0.0-2.0-1.106","r60","[""L""]","","","","","","null","key","null","null","6.059999999999491","729.2","410.4","1","1","0","1","1","","",""
"","psychophysics","354","12140","0.0-2.0-3.106-0.106","r60","[""L""]","","","","","","null","key","null","null","6.059999999999491","729.2","410.4","1","1","0","1","1","","",""
"","psychophysics","355","12156","0.0-2.0-0.107","r60","[""L""]","","","","","","null","key","null","null","6.059999999999491","729.2","410.4","1","1","0","1","1","null","",""
"","psychophysics","356","12171","0.0-2.0-1.107","r60","[""L""]","","","","","","null","key","null","null","6.0600000000004","729.2","410.4","1","1","0","1","1","","",""
"","psychophysics","357","12187","0.0-2.0-3.107-0.107","r60","[""L""]","","","","","","null","key","null","null","6.059999999999491","729.2","410.4","1","1","0","1","1","","",""
"","psychophysics","358","12202","0.0-2.0-0.108","r60","[""L""]","","","","","","null","key","null","null","6.059999999999491","729.2","410.4","2","0","1","1","0","null","",""
"","psychophysics","359","12219","0.0-2.0-1.108","r60","[""L""]","","","","","","null","key","null","null","6.0700000000006185","729.2","410.4","2","0","1","1","0","","",""
"","psychophysics","360","12234","0.0-2.0-3.108-0.108","r60","[""L""]","","","","","","null","key","null","null","6.059999999999491","729.2","410.4","2","0","1","1","0","","",""
"","psychophysics","361","12249","0.0-2.0-0.109","r60","[""L""]","","","","","","null","key","null","null","6.0600000000004","729.2","410.4","1","1","0","1","1","null","",""
"","psychophysics","362","12265","0.0-2.0-1.109","r60","[""L""]","","","","","","null","key","null","null","6.0600000000004","729.2","410.4","1","1","0","1","1","","",""
"","psychophysics","363","12280","0.0-2.0-3.109-0.109","r60","[""L""]","","","","","","null","key","null","null","6.059999999999491","729.2","410.4","1","1","0","1","1","","",""
"","psychophysics","364","12297","0.0-2.0-0.110","r60","[""L""]","","","","","","null","key","null","null","6.059999999999491","729.2","410.4","1","1","1","1","1","null","",""
"","psychophysics","365","12312","0.0-2.0-1.110","r60","[""L""]","","","","","","null","key","null","null","6.059999999999491","729.2","410.4","1","1","1","1","1","","",""
"","psychophysics","366","12327","0.0-2.0-3.110-0.110","r60","[""L""]","","","","","","null","key","null","null","6.0600000000004","729.2","410.4","1","1","1","1","1","","",""
"","psychophysics","367","12345","0.0-2.0-0.111","r60","[""L""]","","","","","","null","key","null","null","6.0600000000004","729.2","410.4","1","0","1","1","1","null","",""
"","psychophysics","368","12360","0.0-2.0-1.111","r60","[""L""]","","","","","","null","key","null","null","6.059999999999491","729.2","410.4","1","0","1","1","1","","",""
"","psychophysics","369","12375","0.0-2.0-3.111-0.111","r60","[""L""]","","","","","","null","key","null","null","6.0600000000004","729.2","410.4","1","0","1","1","1","","",""
"","psychophysics","370","12390","0.0-2.0-0.112","r60","[""L""]","","","","","","null","key","null","null","6.059999999999491","729.2","410.4","1","1","1","1","1","null","",""
"","psychophysics","371","12406","0.0-2.0-1.112","r60","[""L""]","","","","","","null","key","null","null","6.059999999999491","729.2","410.4","1","1","1","1","1","","",""
"","psychophysics","372","12423","0.0-2.0-3.112-0.112","r60","[""L""]","","","","","","null","key","null","null","6.050000000000182","729.2","410.4","1","1","1","1","1","","",""
"","psychophysics","373","12439","0.0-2.0-0.113","r60","[""L""]","","","","","","null","key","null","null","6.06000000000131","729.2","410.4","1","1","0","1","1","null","",""
"","psychophysics","374","12454","0.0-2.0-1.113","r60","[""L""]","","","","","","null","key","null","null","6.0600000000004","729.2","410.4","1","1","0","1","1","","",""
"","psychophysics","375","12470","0.0-2.0-3.113-0.113","r60","[""L""]","","","","","","null","key","null","null","6.059999999999491","729.2","410.4","1","1","0","1","1","","",""
"","psychophysics","376","12484","0.0-2.0-0.114","r60","[""L""]","","","","","","null","key","null","null","6.0600000000004","729.2","410.4","1","0","0","1","0","null","",""
"","psychophysics","377","12500","0.0-2.0-1.114","r60","[""L""]","","","","","","null","key","null","null","6.06000000000131","729.2","410.4","1","0","0","1","0","","",""
"","psychophysics","378","12516","0.0-2.0-3.114-0.114","r60","[""L""]","","","","","","null","key","null","null","6.059999999999491","729.2","410.4","1","0","0","1","0","","",""
"","psychophysics","379","12531","0.0-2.0-0.115","r60","[""L""]","","","","","","null","key","null","null","6.059999999999491","729.2","410.4","2","0","0","1","1","null","",""
"","psychophysics","380","12547","0.0-2.0-1.115","r60","[""L""]","","","","","","null","key","null","null","6.0700000000006185","729.2","410.4","2","0","0","1","1","","",""
"","psychophysics","381","12563","0.0-2.0-3.115-0.115","r60","[""L""]","","","","","","null","key","null","null","12.119999999998981","729.2","410.4","2","0","0","1","1","","",""
"","psychophysics","382","12579","0.0-2.0-0.116","r60","[""L""]","","","","","","null","key","null","null","6.059999999999491","729.2","410.4","2","0","0","0","1","null","",""
"","psychophysics","383","12594","0.0-2.0-1.116","r60","[""L""]","","","","","","null","key","null","null","6.0600000000004","729.2","410.4","2","0","0","0","1","","",""
"","psychophysics","384","12610","0.0-2.0-3.116-0.116","r60","[""L""]","","","","","","null","key","null","null","6.059999999999491","729.2","410.4","2","0","0","0","1","","",""
"","psychophysics","385","12626","0.0-2.0-0.117","r60","[""L""]","","","","","","null","key","null","null","6.059999999999491","729.2","410.4","1","1","1","0","1","null","",""
"","psychophysics","386","12641","0.0-2.0-1.117","r60","[""L""]","","","","","","null","key","null","null","6.0600000000004","729.2","410.4","1","1","1","0","1","","",""
"","psychophysics","387","12657","0.0-2.0-3.117-0.117","r60","[""L""]","","","","","","null","key","null","null","6.06000000000131","729.2","410.4","1","1","1","0","1","","",""
"","psychophysics","388","12672","0.0-2.0-0.118","r60","[""L""]","","","","","","null","key","null","null","6.059999999999491","729.2","410.4","1","0","1","0","1","null","",""
"","psychophysics","389","12720","0.0-2.0-1.118","r60","[""L""]","","","","","","null","key","null","null","42.399999999999636","729.2","410.4","1","0","1","0","1","","",""
"","psychophysics","390","12763","0.0-2.0-3.118-0.118","r60","[""L""]","","","","","","null","key","null","null","NaN","729.2","410.4","1","0","1","0","1","","",""
"","psychophysics","391","12783","0.0-2.0-0.119","r60","[""L""]","","","","","","null","key","null","null","NaN","729.2","410.4","2","1","0","1","1","null","",""
"","psychophysics","392","12799","0.0-2.0-1.119","r60","[""L""]","","","","","","null","key","null","null","6.059999999999491","729.2","410.4","2","1","0","1","1","","",""
"","psychophysics","393","12814","0.0-2.0-3.119-0.119","r60","[""L""]","","","","","","null","key","null","null","6.059999999999491","729.2","410.4","2","1","0","1","1","","",""
"","psychophysics","394","12830","0.0-2.0-0.120","r60","[""L""]","","","","","","null","key","null","null","6.0600000000004","729.2","410.4","1","1","1","1","0","null","",""
"","psychophysics","395","12847","0.0-2.0-1.120","r60","[""L""]","","","","","","null","key","null","null","6.059999999999491","729.2","410.4","1","1","1","1","0","","",""
"","psychophysics","396","12862","0.0-2.0-3.120-0.120","r60","[""L""]","","","","","","null","key","null","null","6.059999999999491","729.2","410.4","1","1","1","1","0","","",""
"","psychophysics","397","12878","0.0-2.0-0.121","r60","[""L""]","","","","","","null","key","null","null","6.0600000000004","729.2","410.4","1","1","1","1","0","null","",""
"","psychophysics","398","12895","0.0-2.0-1.121","r60","[""L""]","","","","","","null","key","null","null","6.059999999999491","729.2","410.4","1","1","1","1","0","","",""
"","psychophysics","399","12911","0.0-2.0-3.121-0.121","r60","[""L""]","","","","","","null","key","null","null","6.059999999999491","729.2","410.4","1","1","1","1","0","","",""
"","psychophysics","400","12926","0.0-2.0-0.122","r60","[""L""]","","","","","","null","key","null","null","6.059999999999491","729.2","410.4","2","0","0","0","1","null","",""
"","psychophysics","401","12942","0.0-2.0-1.122","r60","[""L""]","","","","","","null","key","null","null","6.059999999999491","729.2","410.4","2","0","0","0","1","","",""
"","psychophysics","402","12959","0.0-2.0-3.122-0.122","r60","[""L""]","","","","","","null","key","null","null","6.059999999999491","729.2","410.4","2","0","0","0","1","","",""
"","psychophysics","403","12975","0.0-2.0-0.123","r60","[""L""]","","","","","","null","key","null","null","6.059999999999491","729.2","410.4","2","1","1","1","1","null","",""
"","psychophysics","404","12991","0.0-2.0-1.123","r60","[""L""]","","","","","","null","key","null","null","6.06000000000131","729.2","410.4","2","1","1","1","1","","",""
"","psychophysics","405","13007","0.0-2.0-3.123-0.123","r60","[""L""]","","","","","","null","key","null","null","6.0600000000004","729.2","410.4","2","1","1","1","1","","",""
"","psychophysics","406","13023","0.0-2.0-0.124","r60","[""L""]","","","","","","null","key","null","null","6.059999999999491","729.2","410.4","2","0","1","0","1","null","",""
"","psychophysics","407","13038","0.0-2.0-1.124","r60","[""L""]","","","","","","null","key","null","null","6.059999999999491","729.2","410.4","2","0","1","0","1","","",""
"","psychophysics","408","13055","0.0-2.0-3.124-0.124","r60","[""L""]","","","","","","null","key","null","null","6.0600000000004","729.2","410.4","2","0","1","0","1","","",""
"","psychophysics","409","13070","0.0-2.0-0.125","r60","[""L""]","","","","","","null","key","null","null","6.059999999999491","729.2","410.4","1","0","0","1","1","null","",""
"","psychophysics","410","13086","0.0-2.0-1.125","r60","[""L""]","","","","","","null","key","null","null","6.059999999999491","729.2","410.4","1","0","0","1","1","","",""
"","psychophysics","411","13102","0.0-2.0-3.125-0.125","r60","[""L""]","","","","","","null","key","null","null","6.0600000000004","729.2","410.4","1","0","0","1","1","","",""
"","psychophysics","412","13117","0.0-2.0-0.126","r60","[""L""]","","","","","","null","key","null","null","6.06000000000131","729.2","410.4","1","0","1","1","1","null","",""
"","psychophysics","413","13133","0.0-2.0-1.126","r60","[""L""]","","","","","","null","key","null","null","6.069999999999709","729.2","410.4","1","0","1","1","1","","",""
"","psychophysics","414","13148","0.0-2.0-3.126-0.126","r60","[""L""]","","","","","","null","key","null","null","6.06000000000131","729.2","410.4","1","0","1","1","1","","",""
"","psychophysics","415","13164","0.0-2.0-0.127","r60","[""L""]","","","","","","null","key","null","null","6.0600000000004","729.2","410.4","2","0","0","0","1","null","",""
"","psychophysics","416","13180","0.0-2.0-1.127","r60","[""L""]","","","","","","null","key","null","null","6.059999999999491","729.2","410.4","2","0","0","0","1","","",""
"","psychophysics","417","13196","0.0-2.0-3.127-0.127","r60","[""L""]","","","","","","null","key","null","null","6.059999999999491","729.2","410.4","2","0","0","0","1","","",""
"","psychophysics","418","13212","0.0-2.0-0.128","r60","[""L""]","","","","","","null","key","null","null","6.0600000000004","729.2","410.4","1","1","1","0","0","null","",""
"","psychophysics","419","13227","0.0-2.0-1.128","r60","[""L""]","","","","","","null","key","null","null","6.059999999999491","729.2","410.4","1","1","1","0","0","","",""
"","psychophysics","420","13242","0.0-2.0-3.128-0.128","r60","[""L""]","","","","","","null","key","null","null","6.059999999999491","729.2","410.4","1","1","1","0","0","","",""
"","psychophysics","421","13258","0.0-2.0-0.129","r60","[""L""]","","","","","","null","key","null","null","6.059999999999491","729.2","410.4","1","1","0","1","1","null","",""
"","psychophysics","422","13274","0.0-2.0-1.129","r60","[""L""]","","","","","","null","key","null","null","6.0600000000004","729.2","410.4","1","1","0","1","1","","",""
"","psychophysics","423","13290","0.0-2.0-3.129-0.129","r60","[""L""]","","","","","","null","key","null","null","6.059999999999491","729.2","410.4","1","1","0","1","1","","",""
"","psychophysics","424","13306","0.0-2.0-0.130","r60","[""L""]","","","","","","null","key","null","null","6.059999999999491","729.2","410.4","1","1","0","1","1","null","",""
"","psychophysics","425","13321","0.0-2.0-1.130","r60","[""L""]","","","","","","null","key","null","null","6.0600000000004","729.2","410.4","1","1","0","1","1","","",""
"","psychophysics","426","13337","0.0-2.0-3.130-0.130","r60","[""L""]","","","","","","null","key","null","null","6.079999999999927","729.2","410.4","1","1","0","1","1","","",""
"","psychophysics","427","13351","0.0-2.0-0.131","r60","[""L""]","","","","","","null","key","null","null","6.0600000000004","729.2","410.4","1","1","1","1","1","null","",""
"","psychophysics","428","13380","0.0-2.0-1.131","r60","[""L""]","","","","","","null","key","null","null","6.06000000000131","729.2","410.4","1","1","1","1","1","","",""
"","psychophysics","429","13426","0.0-2.0-3.131-0.131","r60","[""L""]","","","","","","null","key","null","null","36.35999999999876","729.2","410.4","1","1","1","1","1","","",""
"","psychophysics","430","13445","0.0-2.0-0.132","r60","[""L""]","","","","","","null","key","null","null","6.059999999999491","729.2","410.4","2","1","1","0","1","null","",""
"","psychophysics","431","13460","0.0-2.0-1.132","r60","[""L""]","","","","","","null","key","null","null","6.059999999999491","729.2","410.4","2","1","1","0","1","","",""
"","psychophysics","432","13475","0.0-2.0-3.132-0.132","r60","[""L""]","","","","","","null","key","null","null","6.06000000000131","729.2","410.4","2","1","1","0","1","","",""
"","psychophysics","433","13491","0.0-2.0-0.133","r60","[""L""]","","","","","","null","key","null","null","6.059999999999491","729.2","410.4","2","1","0","1","1","null","",""
"","psychophysics","434","13506","0.0-2.0-1.133","r60","[""L""]","","","","","","null","key","null","null","6.059999999999491","729.2","410.4","2","1","0","1","1","","",""
"","psychophysics","435","13522","0.0-2.0-3.133-0.133","r60","[""L""]","","","","","","null","key","null","null","6.0600000000004","729.2","410.4","2","1","0","1","1","","",""
"","psychophysics","436","13538","0.0-2.0-0.134","r60","[""L""]","","","","","","null","key","null","null","6.059999999999491","729.2","410.4","2","0","1","1","0","null","",""
"","psychophysics","437","13553","0.0-2.0-1.134","r60","[""L""]","","","","","","null","key","null","null","6.059999999999491","729.2","410.4","2","0","1","1","0","","",""
"","psychophysics","438","13569","0.0-2.0-3.134-0.134","r60","[""L""]","","","","","","null","key","null","null","6.069999999999709","729.2","410.4","2","0","1","1","0","","",""
"","psychophysics","439","13584","0.0-2.0-0.135","r60","[""L""]","","","","","","null","key","null","null","6.059999999999491","729.2","410.4","2","1","0","0","1","null","",""
"","psychophysics","440","13599","0.0-2.0-1.135","r60","[""L""]","","","","","","null","key","null","null","6.059999999999491","729.2","410.4","2","1","0","0","1","","",""
"","psychophysics","441","13616","0.0-2.0-3.135-0.135","r60","[""L""]","","","","","","null","key","null","null","6.059999999999491","729.2","410.4","2","1","0","0","1","","",""
"","psychophysics","442","13631","0.0-2.0-0.136","r60","[""L""]","","","","","","null","key","null","null","6.0600000000004","729.2","410.4","2","1","1","1","1","null","",""
"","psychophysics","443","13647","0.0-2.0-1.136","r60","[""L""]","","","","","","null","key","null","null","6.059999999999491","729.2","410.4","2","1","1","1","1","","",""
"","psychophysics","444","13663","0.0-2.0-3.136-0.136","r60","[""L""]","","","","","","null","key","null","null","6.059999999999491","729.2","410.4","2","1","1","1","1","","",""
"","psychophysics","445","13678","0.0-2.0-0.137","r60","[""L""]","","","","","","null","key","null","null","6.0600000000004","729.2","410.4","2","0","0","1","0","null","",""
"","psychophysics","446","13694","0.0-2.0-1.137","r60","[""L""]","","","","","","null","key","null","null","6.059999999999491","729.2","410.4","2","0","0","1","0","","",""
"","psychophysics","447","13710","0.0-2.0-3.137-0.137","r60","[""L""]","","","","","","null","key","null","null","6.059999999999491","729.2","410.4","2","0","0","1","0","","",""
"","psychophysics","448","13726","0.0-2.0-0.138","r60","[""L""]","","","","","","null","key","null","null","6.059999999999491","729.2","410.4","1","0","0","1","1","null","",""
"","psychophysics","449","13741","0.0-2.0-1.138","r60","[""L""]","","","","","","null","key","null","null","6.06000000000131","729.2","410.4","1","0","0","1","1","","",""
"","psychophysics","450","13756","0.0-2.0-3.138-0.138","r60","[""L""]","","","","","","null","key","null","null","6.0600000000004","729.2","410.4","1","0","0","1","1","","",""
"","psychophysics","451","13771","0.0-2.0-0.139","r60","[""L""]","","","","","","null","key","null","null","6.079999999999927","729.2","410.4","2","0","1","1","1","null","",""
"","psychophysics","452","13786","0.0-2.0-1.139","r60","[""L""]","","","","","","null","key","null","null","6.059999999999491","729.2","410.4","2","0","1","1","1","","",""
"","psychophysics","453","13802","0.0-2.0-3.139-0.139","r60","[""L""]","","","","","","null","key","null","null","6.059999999999491","729.2","410.4","2","0","1","1","1","","",""
"","psychophysics","454","13817","0.0-2.0-0.140","r60","[""L""]","","","","","","null","key","null","null","6.059999999999491","729.2","410.4","1","0","1","0","1","null","",""
"","psychophysics","455","13833","0.0-2.0-1.140","r60","[""L""]","","","","","","null","key","null","null","6.06000000000131","729.2","410.4","1","0","1","0","1","","",""
"","psychophysics","456","13848","0.0-2.0-3.140-0.140","r60","[""L""]","","","","","","null","key","null","null","6.0600000000004","729.2","410.4","1","0","1","0","1","","",""
"","psychophysics","457","13864","0.0-2.0-0.141","r60","[""L""]","","","","","","null","key","null","null","6.059999999999491","729.2","410.4","1","1","1","1","1","null","",""
"","psychophysics","458","13880","0.0-2.0-1.141","r60","[""L""]","","","","","","null","key","null","null","6.0600000000004","729.2","410.4","1","1","1","1","1","","",""
"","psychophysics","459","13895","0.0-2.0-3.141-0.141","r60","[""L""]","","","","","","null","key","null","null","6.0600000000004","729.2","410.4","1","1","1","1","1","","",""
"","psychophysics","460","13911","0.0-2.0-0.142","r60","[""L""]","","","","","","null","key","null","null","6.06000000000131","729.2","410.4","1","0","1","1","1","null","",""
"","psychophysics","461","13927","0.0-2.0-1.142","r60","[""L""]","","","","","","null","key","null","null","6.059999999999491","729.2","410.4","1","0","1","1","1","","",""
"","psychophysics","462","13943","0.0-2.0-3.142-0.142","r60","[""L""]","","","","","","null","key","null","null","6.059999999999491","729.2","410.4","1","0","1","1","1","","",""
"","psychophysics","463","13958","0.0-2.0-0.143","r60","[""L""]","","","","","","null","key","null","null","6.0700000000006185","729.2","410.4","1","0","0","0","0","null","",""
"","psychophysics","464","14022","0.0-2.0-1.143","r60","[""L""]","","","","","","null","key","null","null","6.059999999999491","729.2","410.4","1","0","0","0","0","","",""
"","psychophysics","465","14037","0.0-2.0-3.143-0.143","r60","[""L""]","","","","","","null","key","null","null","6.059999999999491","729.2","410.4","1","0","0","0","0","","",""
"","psychophysics","466","14053","0.0-2.0-0.144","r60","[""L""]","","","","","","null","key","null","null","6.0600000000004","729.2","410.4","1","1","1","1","1","null","",""
"","psychophysics","467","14069","0.0-2.0-1.144","r60","[""L""]","","","","","","null","key","null","null","6.06000000000131","729.2","410.4","1","1","1","1","1","","",""
"","psychophysics","468","14084","0.0-2.0-3.144-0.144","r60","[""L""]","","","","","","null","key","null","null","6.059999999999491","729.2","410.4","1","1","1","1","1","","",""
"","psychophysics","469","14100","0.0-2.0-0.145","r60","[""L""]","","","","","","null","key","null","null","6.059999999999491","729.2","410.4","1","0","1","0","1","null","",""
"","psychophysics","470","14116","0.0-2.0-1.145","r60","[""L""]","","","","","","null","key","null","null","6.0600000000004","729.2","410.4","1","0","1","0","1","","",""
"","psychophysics","471","14132","0.0-2.0-3.145-0.145","r60","[""L""]","","","","","","null","key","null","null","6.0600000000004","729.2","410.4","1","0","1","0","1","","",""
"","psychophysics","472","14148","0.0-2.0-0.146","r60","[""L""]","","","","","","null","key","null","null","6.059999999999491","729.2","410.4","1","1","0","1","1","null","",""
"","psychophysics","473","14164","0.0-2.0-1.146","r60","[""L""]","","","","","","null","key","null","null","6.0600000000004","729.2","410.4","1","1","0","1","1","","",""
"","psychophysics","474","14180","0.0-2.0-3.146-0.146","r60","[""L""]","","","","","","null","key","null","null","6.0600000000004","729.2","410.4","1","1","0","1","1","","",""
"","psychophysics","475","14196","0.0-2.0-0.147","r60","[""L""]","","","","","","null","key","null","null","6.059999999999491","729.2","410.4","1","0","1","1","1","null","",""
"","psychophysics","476","14212","0.0-2.0-1.147","r60","[""L""]","","","","","","null","key","null","null","6.059999999999491","729.2","410.4","1","0","1","1","1","","",""
"","psychophysics","477","14228","0.0-2.0-3.147-0.147","r60","[""L""]","","","","","","null","key","null","null","6.06000000000131","729.2","410.4","1","0","1","1","1","","",""
"","psychophysics","478","14243","0.0-2.0-0.148","r60","[""L""]","","","","","","null","key","null","null","6.059999999999491","729.2","410.4","2","1","1","0","0","null","",""
"","psychophysics","479","14259","0.0-2.0-1.148","r60","[""L""]","","","","","","null","key","null","null","6.059999999999491","729.2","410.4","2","1","1","0","0","","",""
"","psychophysics","480","14274","0.0-2.0-3.148-0.148","r60","[""L""]","","","","","","null","key","null","null","6.0600000000004","729.2","410.4","2","1","1","0","0","","",""
"","psychophysics","481","14290","0.0-2.0-0.149","r60","[""L""]","","","","","","null","key","null","null","6.0600000000004","729.2","410.4","2","1","1","1","1","null","",""
"","psychophysics","482","14306","0.0-2.0-1.149","r60","[""L""]","","","","","","null","key","null","null","6.059999999999491","729.2","410.4","2","1","1","1","1","","",""
"","psychophysics","483","14321","0.0-2.0-3.149-0.149","r60","[""L""]","","","","","","null","key","null","null","6.059999999999491","729.2","410.4","2","1","1","1","1","","",""
"","psychophysics","484","14337","0.0-2.0-0.150","r60","[""L""]","","","","","","null","key","null","null","6.06000000000131","729.2","410.4","1","0","1","1","0","null","",""
"","psychophysics","485","14352","0.0-2.0-1.150","r60","[""L""]","","","","","","null","key","null","null","6.069999999999709","729.2","410.4","1","0","1","1","0","","",""
"","psychophysics","486","14367","0.0-2.0-3.150-0.150","r60","[""L""]","","","","","","null","key","null","null","6.059999999999491","729.2","410.4","1","0","1","1","0","","",""
"","psychophysics","487","14382","0.0-2.0-0.151","r60","[""L""]","","","","","","null","key","null","null","6.0600000000004","729.2","410.4","2","1","1","1","0","null","",""
"","psychophysics","488","14399","0.0-2.0-1.151","r60","[""L""]","","","","","","null","key","null","null","6.0600000000004","729.2","410.4","2","1","1","1","0","","",""
"","psychophysics","489","14413","0.0-2.0-3.151-0.151","r60","[""L""]","","","","","","null","key","null","null","6.059999999999491","729.2","410.4","2","1","1","1","0","","",""
"","psychophysics","490","14430","0.0-2.0-0.152","r60","[""L""]","","","","","","null","key","null","null","6.0600000000004","729.2","410.4","1","1","0","1","1","null","",""
"","psychophysics","491","14446","0.0-2.0-1.152","r60","[""L""]","","","","","","null","key","null","null","6.059999999999491","729.2","410.4","1","1","0","1","1","","",""
"","psychophysics","492","14461","0.0-2.0-3.152-0.152","r60","[""L""]","","","","","","null","key","null","null","6.059999999999491","729.2","410.4","1","1","0","1","1","","",""
"","psychophysics","493","14477","0.0-2.0-0.153","r60","[""L""]","","","","","","null","key","null","null","6.059999999999491","729.2","410.4","1","0","1","0","1","null","",""
"","psychophysics","494","14493","0.0-2.0-1.153","r60","[""L""]","","","","","","null","key","null","null","6.06000000000131","729.2","410.4","1","0","1","0","1","","",""
"","psychophysics","495","14508","0.0-2.0-3.153-0.153","r60","[""L""]","","","","","","null","key","null","null","6.0600000000004","729.2","410.4","1","0","1","0","1","","",""
"","psychophysics","496","14523","0.0-2.0-0.154","r60","[""L""]","","","","","","null","key","null","null","6.059999999999491","729.2","410.4","2","0","1","1","0","null","",""
"","psychophysics","497","14539","0.0-2.0-1.154","r60","[""L""]","","","","","","null","key","null","null","6.0600000000004","729.2","410.4","2","0","1","1","0","","",""
"","psychophysics","498","14594","0.0-2.0-3.154-0.154","r60","[""L""]","","","","","","null","key","null","null","6.079999999999927","729.2","410.4","2","0","1","1","0","","",""
"","psychophysics","499","14603","0.0-2.0-0.155","r60","[""L""]","","","","","","null","key","null","null","NaN","729.2","410.4","1","0","0","0","1","null","",""
"","psychophysics","500","14619","0.0-2.0-1.155","r60","[""L""]","","","","","","null","key","null","null","6.0600000000004","729.2","410.4","1","0","0","0","1","","",""
"","psychophysics","501","14635","0.0-2.0-3.155-0.155","r60","[""L""]","","","","","","null","key","null","null","6.059999999999491","729.2","410.4","1","0","0","0","1","","",""
"","psychophysics","502","14651","0.0-2.0-0.156","r60","[""L""]","","","","","","null","key","null","null","6.059999999999491","729.2","410.4","2","0","0","0","1","null","",""
"","psychophysics","503","14667","0.0-2.0-1.156","r60","[""L""]","","","","","","null","key","null","null","6.0600000000004","729.2","410.4","2","0","0","0","1","","",""
"","psychophysics","504","14682","0.0-2.0-3.156-0.156","r60","[""L""]","","","","","","null","key","null","null","6.059999999999491","729.2","410.4","2","0","0","0","1","","",""
"","psychophysics","505","14698","0.0-2.0-0.157","r60","[""L""]","","","","","","null","key","null","null","6.059999999999491","729.2","410.4","1","0","0","1","0","null","",""
"","psychophysics","506","14713","0.0-2.0-1.157","r60","[""L""]","","","","","","null","key","null","null","6.059999999999491","729.2","410.4","1","0","0","1","0","","",""
"","psychophysics","507","14728","0.0-2.0-3.157-0.157","r60","[""L""]","","","","","","null","key","null","null","6.0600000000004","729.2","410.4","1","0","0","1","0","","",""
"","psychophysics","508","14744","0.0-2.0-0.158","r60","[""L""]","","","","","","null","key","null","null","6.059999999999491","729.2","410.4","1","1","1","1","0","null","",""
"","psychophysics","509","14759","0.0-2.0-1.158","r60","[""L""]","","","","","","null","key","null","null","6.059999999999491","729.2","410.4","1","1","1","1","0","","",""
"","psychophysics","510","14776","0.0-2.0-3.158-0.158","r60","[""L""]","","","","","","null","key","null","null","6.0600000000004","729.2","410.4","1","1","1","1","0","","",""
"","psychophysics","511","14790","0.0-2.0-0.159","r60","[""L""]","","","","","","null","key","null","null","6.059999999999491","729.2","410.4","1","1","1","1","1","null","",""
"","psychophysics","512","14807","0.0-2.0-1.159","r60","[""L""]","","","","","","null","key","null","null","6.0600000000004","729.2","410.4","1","1","1","1","1","","",""
"","psychophysics","513","14823","0.0-2.0-3.159-0.159","r60","[""L""]","","","","","","null","key","null","null","6.0600000000004","729.2","410.4","1","1","1","1","1","","",""
"","psychophysics","514","14838","0.0-2.0-0.160","r60","[""L""]","","","","","","null","key","null","null","6.059999999999491","729.2","410.4","1","0","1","0","1","null","",""
"","psychophysics","515","14854","0.0-2.0-1.160","r60","[""L""]","","","","","","null","key","null","null","6.059999999999491","729.2","410.4","1","0","1","0","1","","",""
"","psychophysics","516","14870","0.0-2.0-3.160-0.160","r60","[""L""]","","","","","","null","key","null","null","6.059999999999491","729.2","410.4","1","0","1","0","1","","",""
"","psychophysics","517","14886","0.0-2.0-0.161","r60","[""L""]","","","","","","null","key","null","null","6.0600000000004","729.2","410.4","2","1","1","1","0","null","",""
"","psychophysics","518","14901","0.0-2.0-1.161","r60","[""L""]","","","","","","null","key","null","null","6.059999999999491","729.2","410.4","2","1","1","1","0","","",""
"","psychophysics","519","14917","0.0-2.0-3.161-0.161","r60","[""L""]","","","","","","null","key","null","null","6.059999999999491","729.2","410.4","2","1","1","1","0","","",""
"","psychophysics","520","14933","0.0-2.0-0.162","r60","[""L""]","","","","","","null","key","null","null","6.0600000000004","729.2","410.4","1","0","1","1","0","null","",""
"","psychophysics","521","14948","0.0-2.0-1.162","r60","[""L""]","","","","","","null","key","null","null","6.059999999999491","729.2","410.4","1","0","1","1","0","","",""
"","psychophysics","522","14965","0.0-2.0-3.162-0.162","r60","[""L""]","","","","","","null","key","null","null","6.069999999999709","729.2","410.4","1","0","1","1","0","","",""
"","psychophysics","523","14981","0.0-2.0-0.163","r60","[""L""]","","","","","","null","key","null","null","6.0600000000004","729.2","410.4","1","1","0","0","1","null","",""
"","psychophysics","524","14997","0.0-2.0-1.163","r60","[""L""]","","","","","","null","key","null","null","6.059999999999491","729.2","410.4","1","1","0","0","1","","",""
"","psychophysics","525","15012","0.0-2.0-3.163-0.163","r60","[""L""]","","","","","","null","key","null","null","6.059999999999491","729.2","410.4","1","1","0","0","1","","",""
"","psychophysics","526","15027","0.0-2.0-0.164","r60","[""L""]","","","","","","null","key","null","null","6.059999999999491","729.2","410.4","2","0","0","1","1","null","",""
"","psychophysics","527","15043","0.0-2.0-1.164","r60","[""L""]","","","","","","null","key","null","null","6.0600000000004","729.2","410.4","2","0","0","1","1","","",""
"","psychophysics","528","15058","0.0-2.0-3.164-0.164","r60","[""L""]","","","","","","null","key","null","null","6.059999999999491","729.2","410.4","2","0","0","1","1","","",""
"","psychophysics","529","15073","0.0-2.0-0.165","r60","[""L""]","","","","","","null","key","null","null","6.059999999999491","729.2","410.4","1","0","1","0","1","null","",""
"","psychophysics","530","15089","0.0-2.0-1.165","r60","[""L""]","","","","","","null","key","null","null","6.06000000000131","729.2","410.4","1","0","1","0","1","","",""
"","psychophysics","531","15105","0.0-2.0-3.165-0.165","r60","[""L""]","","","","","","null","key","null","null","6.0600000000004","729.2","410.4","1","0","1","0","1","","",""
"","psychophysics","532","15120","0.0-2.0-0.166","r60","[""L""]","","","","","","null","key","null","null","6.059999999999491","729.2","410.4","1","1","1","0","1","null","",""
"","psychophysics","533","15163","0.0-2.0-1.166","r60","[""L""]","","","","","","null","key","null","null","NaN","729.2","410.4","1","1","1","0","1","","",""
"","psychophysics","534","15169","0.0-2.0-3.166-0.166","r60","[""L""]","","","","","","null","key","null","null","NaN","729.2","410.4","1","1","1","0","1","","",""
"","psychophysics","535","15185","0.0-2.0-0.167","r60","[""L""]","","","","","","null","key","null","null","6.059999999999491","729.2","410.4","1","1","1","1","1","null","",""
"","psychophysics","536","15201","0.0-2.0-1.167","r60","[""L""]","","","","","","null","key","null","null","6.0600000000004","729.2","410.4","1","1","1","1","1","","",""
"","psychophysics","537","15217","0.0-2.0-3.167-0.167","r60","[""L""]","","","","","","null","key","null","null","6.0600000000004","729.2","410.4","1","1","1","1","1","","",""
"","psychophysics","538","15232","0.0-2.0-0.168","r60","[""L""]","","","","","","null","key","null","null","6.059999999999491","729.2","410.4","1","1","1","1","1","null","",""
"","psychophysics","539","15249","0.0-2.0-1.168","r60","[""L""]","","","","","","null","key","null","null","6.0600000000004","729.2","410.4","1","1","1","1","1","","",""
"","psychophysics","540","15265","0.0-2.0-3.168-0.168","r60","[""L""]","","","","","","null","key","null","null","6.0600000000004","729.2","410.4","1","1","1","1","1","","",""
"","psychophysics","541","15280","0.0-2.0-0.169","r60","[""L""]","","","","","","null","key","null","null","6.059999999999491","729.2","410.4","2","0","1","1","1","null","",""
"","psychophysics","542","15296","0.0-2.0-1.169","r60","[""L""]","","","","","","null","key","null","null","6.059999999999491","729.2","410.4","2","0","1","1","1","","",""
"","psychophysics","543","15311","0.0-2.0-3.169-0.169","r60","[""L""]","","","","","","null","key","null","null","6.059999999999491","729.2","410.4","2","0","1","1","1","","",""
"","psychophysics","544","15327","0.0-2.0-0.170","r60","[""L""]","","","","","","null","key","null","null","6.0600000000004","729.2","410.4","1","0","1","1","0","null","",""
"","psychophysics","545","15343","0.0-2.0-1.170","r60","[""L""]","","","","","","null","key","null","null","6.059999999999491","729.2","410.4","1","0","1","1","0","","",""
"","psychophysics","546","15359","0.0-2.0-3.170-0.170","r60","[""L""]","","","","","","null","key","null","null","6.0600000000004","729.2","410.4","1","0","1","1","0","","",""
"","psychophysics","547","15374","0.0-2.0-0.171","r60","[""L""]","","","","","","null","key","null","null","6.059999999999491","729.2","410.4","1","1","0","1","0","null","",""
"","psychophysics","548","15390","0.0-2.0-1.171","r60","[""L""]","","","","","","null","key","null","null","6.059999999999491","729.2","410.4","1","1","0","1","0","","",""
"","psychophysics","549","15406","0.0-2.0-3.171-0.171","r60","[""L""]","","","","","","null","key","null","null","6.0600000000004","729.2","410.4","1","1","0","1","0","","",""
"","psychophysics","550","15422","0.0-2.0-0.172","r60","[""L""]","","","","","","null","key","null","null","6.06000000000131","729.2","410.4","1","1","1","1","1","null","",""
"","psychophysics","551","15437","0.0-2.0-1.172","r60","[""L""]","","","","","","null","key","null","null","6.059999999999491","729.2","410.4","1","1","1","1","1","","",""
"","psychophysics","552","15453","0.0-2.0-3.172-0.172","r60","[""L""]","","","","","","null","key","null","null","6.059999999999491","729.2","410.4","1","1","1","1","1","","",""
"","psychophysics","553","15469","0.0-2.0-0.173","r60","[""L""]","","","","","","null","key","null","null","6.059999999999491","729.2","410.4","2","1","1","1","1","null","",""
"","psychophysics","554","15485","0.0-2.0-1.173","r60","[""L""]","","","","","","null","key","null","null","6.0600000000004","729.2","410.4","2","1","1","1","1","","",""
"","psychophysics","555","15500","0.0-2.0-3.173-0.173","r60","[""L""]","","","","","","null","key","null","null","6.059999999999491","729.2","410.4","2","1","1","1","1","","",""
"","psychophysics","556","15516","0.0-2.0-0.174","r60","[""L""]","","","","","","null","key","null","null","6.059999999999491","729.2","410.4","1","0","0","1","1","null","",""
"","psychophysics","557","15533","0.0-2.0-1.174","r60","[""L""]","","","","","","null","key","null","null","6.0600000000004","729.2","410.4","1","0","0","1","1","","",""
"","psychophysics","558","15548","0.0-2.0-3.174-0.174","r60","[""L""]","","","","","","null","key","null","null","6.059999999999491","729.2","410.4","1","0","0","1","1","","",""
"","psychophysics","559","15563","0.0-2.0-0.175","r60","[""L""]","","","","","","null","key","null","null","6.069999999999709","729.2","410.4","2","0","0","1","1","null","",""
"","psychophysics","560","15578","0.0-2.0-1.175","r60","[""L""]","","","","","","null","key","null","null","6.059999999999491","729.2","410.4","2","0","0","1","1","","",""
"","psychophysics","561","15594","0.0-2.0-3.175-0.175","r60","[""L""]","","","","","","null","key","null","null","6.0600000000004","729.2","410.4","2","0","0","1","1","","",""
"","psychophysics","562","15609","0.0-2.0-0.176","r60","[""L""]","","","","","","null","key","null","null","6.059999999999491","729.2","410.4","1","1","1","1","1","null","",""
"","psychophysics","563","15625","0.0-2.0-1.176","r60","[""L""]","","","","","","null","key","null","null","6.059999999999491","729.2","410.4","1","1","1","1","1","","",""
"","psychophysics","564","15640","0.0-2.0-3.176-0.176","r60","[""L""]","","","","","","null","key","null","null","6.06000000000131","729.2","410.4","1","1","1","1","1","","",""
"","psychophysics","565","15656","0.0-2.0-0.177","r60","[""L""]","","","","","","null","key","null","null","6.0600000000004","729.2","410.4","1","1","1","0","1","null","",""
"","psychophysics","566","15708","0.0-2.0-1.177","r60","[""L""]","","","","","","null","key","null","null","6.059999999999491","729.2","410.4","1","1","1","0","1","","",""
"","psychophysics","567","15718","0.0-2.0-3.177-0.177","r60","[""L""]","","","","","","null","key","null","null","NaN","729.2","410.4","1","1","1","0","1","","",""
"","psychophysics","568","15734","0.0-2.0-0.178","r60","[""L""]","","","","","","null","key","null","null","6.069999999999709","729.2","410.4","2","0","0","1","1","null","",""
"","psychophysics","569","15750","0.0-2.0-1.178","r60","[""L""]","","","","","","null","key","null","null","6.0600000000004","729.2","410.4","2","0","0","1","1","","",""
"","psychophysics","570","15765","0.0-2.0-3.178-0.178","r60","[""L""]","","","","","","null","key","null","null","6.059999999999491","729.2","410.4","2","0","0","1","1","","",""
