"success","trial_type","trial_index","time_elapsed","internal_node_id","subject","condition","timeout","failed_images","failed_audio","failed_video","view_history","rt","response_type","key_press","response","avg_frame_time","center_x","center_y","outcome","p1conf","p2conf","p1rslt","p2rslt","correct","stimulus","question_order"
"true","fullscreen","0","353269","0.0-0.0-0.0","aea","[""R""]","","","","","","","","","","","","","","","","","","","",""
"true","preload","1","353273","0.0-0.0-1.0","aea","[""R""]","false","[]","[]","[]","","","","","","","","","","","","","","","",""
"","instructions","2","433778","0.0-1.0","aea","[""R""]","","","","","[{""page_index"":0,""viewing_time"":31247},{""page_index"":1,""viewing_time"":20664},{""page_index"":2,""viewing_time"":28592}]","80503","","","","","","","","","","","","","",""
"","psychophysics","3","440192","0.0-2.0-0.0","aea","[""R""]","","","","","","5708","key","z","z","16.71539843749997","912","513","1","0","0","0","0","true","",""
"","psychophysics","4","441205","0.0-2.0-1.0","aea","[""R""]","","","","","","null","key","null","null","16.672649999999944","912","513","1","0","0","0","0","","",""
"","psychophysics","5","442216","0.0-2.0-2.0-0.0","aea","[""R""]","","","","","","null","key","null","null","16.67272881355918","912","513","1","0","0","0","0","","",""
"","psychophysics","6","451431","0.0-2.0-0.1","aea","[""R""]","","","","","","8508","key","z","z","16.671748188405786","912","513","1","0","1","1","1","true","",""
"","psychophysics","7","452439","0.0-2.0-1.1","aea","[""R""]","","","","","","null","key","null","null","16.673000000000076","912","513","1","0","1","1","1","","",""
"","psychophysics","8","453453","0.0-2.0-2.1-0.1","aea","[""R""]","","","","","","null","key","null","null","16.67279661016961","912","513","1","0","1","1","1","","",""
"","psychophysics","9","461143","0.0-2.0-0.2","aea","[""R""]","","","","","","6977","key","m","m","16.67178958785251","912","513","2","1","1","1","0","true","",""
"","psychophysics","10","462155","0.0-2.0-1.2","aea","[""R""]","","","","","","null","key","null","null","16.671864406778912","912","513","2","1","1","1","0","","",""
"","psychophysics","11","463176","0.0-2.0-2.2-0.2","aea","[""R""]","","","","","","null","key","null","null","16.67280000000028","912","513","2","1","1","1","0","","",""
"","psychophysics","12","474630","0.0-2.0-0.3","aea","[""R""]","","","","","","10745","key","m","m","16.66654002911208","912","513","1","0","1","1","0","false","",""
"","psychophysics","13","475642","0.0-2.0-1.3","aea","[""R""]","","","","","","null","key","null","null","16.670033898305196","912","513","1","0","1","1","0","","",""
"","psychophysics","14","476646","0.0-2.0-3.3-0.3","aea","[""R""]","","","","","","null","key","null","null","16.67400000000004","912","513","1","0","1","1","0","","",""
"","psychophysics","15","482974","0.0-2.0-0.4","aea","[""R""]","","","","","","5617","key","z","z","16.716018567639292","912","513","2","0","0","1","1","false","",""
"","psychophysics","16","483988","0.0-2.0-1.4","aea","[""R""]","","","","","","null","key","null","null","16.67269999999941","912","513","2","0","0","1","1","","",""
"","psychophysics","17","484999","0.0-2.0-3.4-0.4","aea","[""R""]","","","","","","null","key","null","null","16.672850000000714","912","513","2","0","0","1","1","","",""
"","psychophysics","18","499350","0.0-2.0-0.5","aea","[""R""]","","","","","","13641","key","m","m","16.67180325960422","912","513","2","1","0","1","1","true","",""
"","psychophysics","19","500365","0.0-2.0-1.5","aea","[""R""]","","","","","","null","key","null","null","16.672933333333155","912","513","2","1","0","1","1","","",""
"","psychophysics","20","501380","0.0-2.0-2.5-0.5","aea","[""R""]","","","","","","null","key","null","null","16.67270000000038","912","513","2","1","0","1","1","","",""
"","psychophysics","21","507902","0.0-2.0-0.6","aea","[""R""]","","","","","","5814","key","z","z","16.671976923076915","912","513","2","1","0","0","1","false","",""
"","psychophysics","22","508917","0.0-2.0-1.6","aea","[""R""]","","","","","","null","key","null","null","16.672633333333458","912","513","2","1","0","0","1","","",""
"","psychophysics","23","509932","0.0-2.0-3.6-0.6","aea","[""R""]","","","","","","null","key","null","null","16.651116666666347","912","513","2","1","0","0","1","","",""
"","psychophysics","24","517509","0.0-2.0-0.7","aea","[""R""]","","","","","","6869","key","z","z","16.671933920704888","912","513","2","0","1","1","1","false","",""
"","psychophysics","25","518522","0.0-2.0-1.7","aea","[""R""]","","","","","","null","key","null","null","16.671627118643887","912","513","2","0","1","1","1","","",""
"","psychophysics","26","519532","0.0-2.0-3.7-0.7","aea","[""R""]","","","","","","null","key","null","null","16.671649999999985","912","513","2","0","1","1","1","","",""
"","psychophysics","27","527517","0.0-2.0-0.8","aea","[""R""]","","","","","","7278","key","z","z","16.67195188284525","912","513","2","1","1","0","1","false","",""
"","psychophysics","28","528525","0.0-2.0-1.8","aea","[""R""]","","","","","","null","key","null","null","16.6725084745775","912","513","2","1","1","0","1","","",""
"","psychophysics","29","529540","0.0-2.0-3.8-0.8","aea","[""R""]","","","","","","null","key","null","null","16.671166666665037","912","513","2","1","1","0","1","","",""
"","psychophysics","30","534883","0.0-2.0-0.9","aea","[""R""]","","","","","","4636","key","m","m","16.67262812500012","912","513","2","0","0","1","0","true","",""
"","psychophysics","31","535893","0.0-2.0-1.9","aea","[""R""]","","","","","","null","key","null","null","16.671830508475175","912","513","2","0","0","1","0","","",""
"","psychophysics","32","536909","0.0-2.0-2.9-0.9","aea","[""R""]","","","","","","null","key","null","null","16.672733333332385","912","513","2","0","0","1","0","","",""
"","psychophysics","33","545953","0.0-2.0-0.10","aea","[""R""]","","","","","","8337","key","z","z","16.671898523985444","912","513","2","1","1","0","1","false","",""
"","psychophysics","34","546965","0.0-2.0-1.10","aea","[""R""]","","","","","","null","key","null","null","16.671525423728735","912","513","2","1","1","0","1","","",""
"","psychophysics","35","547982","0.0-2.0-3.10-0.10","aea","[""R""]","","","","","","null","key","null","null","16.67161666666701","912","513","2","1","1","0","1","","",""
"","psychophysics","36","552430","0.0-2.0-0.11","aea","[""R""]","","","","","","3744","key","z","z","16.671834586466105","912","513","1","0","0","0","1","true","",""
"","psychophysics","37","553445","0.0-2.0-1.11","aea","[""R""]","","","","","","null","key","null","null","16.67298333333262","912","513","1","0","0","0","1","","",""
"","psychophysics","38","554461","0.0-2.0-2.11-0.11","aea","[""R""]","","","","","","null","key","null","null","16.67280000000028","912","513","1","0","0","0","1","","",""
"","psychophysics","39","560942","0.0-2.0-0.12","aea","[""R""]","","","","","","5774","key","z","z","16.671958762886526","912","513","2","1","0","0","1","false","",""
"","psychophysics","40","561953","0.0-2.0-1.12","aea","[""R""]","","","","","","null","key","null","null","16.672881355933388","912","513","2","1","0","0","1","","",""
"","psychophysics","41","562965","0.0-2.0-3.12-0.12","aea","[""R""]","","","","","","null","key","null","null","16.671816666666807","912","513","2","1","0","0","1","","",""
"","psychophysics","42","568838","0.0-2.0-0.13","aea","[""R""]","","","","","","5168","key","z","z","16.671974358974392","912","513","1","0","1","0","0","true","",""
"","psychophysics","43","569853","0.0-2.0-1.13","aea","[""R""]","","","","","","null","key","null","null","16.672850000000714","912","513","1","0","1","0","0","","",""
"","psychophysics","44","570869","0.0-2.0-2.13-0.13","aea","[""R""]","","","","","","null","key","null","null","16.672749999999844","912","513","1","0","1","0","0","","",""
"","psychophysics","45","575718","0.0-2.0-0.14","aea","[""R""]","","","","","","4142","key","m","m","16.67197586206904","912","513","1","0","0","1","0","false","",""
"","psychophysics","46","576727","0.0-2.0-1.14","aea","[""R""]","","","","","","null","key","null","null","16.67286666666623","912","513","1","0","0","1","0","","",""
"","psychophysics","47","577745","0.0-2.0-3.14-0.14","aea","[""R""]","","","","","","null","key","null","null","16.672633333333458","912","513","1","0","0","1","0","","",""
"","psychophysics","48","587999","0.0-2.0-0.15","aea","[""R""]","","","","","","9545","key","m","m","16.671913680781653","912","513","2","0","1","1","1","true","",""
"","psychophysics","49","589011","0.0-2.0-1.15","aea","[""R""]","","","","","","null","key","null","null","16.958999999999552","912","513","2","0","1","1","1","","",""
"","psychophysics","50","590021","0.0-2.0-2.15-0.15","aea","[""R""]","","","","","","null","key","null","null","16.671699999998477","912","513","2","0","1","1","1","","",""
"","psychophysics","51","596951","0.0-2.0-0.16","aea","[""R""]","","","","","","6223","key","z","z","16.671937349397712","912","513","1","1","1","0","1","true","",""
"","psychophysics","52","597963","0.0-2.0-1.16","aea","[""R""]","","","","","","null","key","null","null","16.671881355931273","912","513","1","1","1","0","1","","",""
"","psychophysics","53","598980","0.0-2.0-2.16-0.16","aea","[""R""]","","","","","","null","key","null","null","16.671616666665066","912","513","1","1","1","0","1","","",""
"","psychophysics","54","608045","0.0-2.0-0.17","aea","[""R""]","","","","","","8360","key","z","z","16.671823204419976","912","513","2","1","1","1","1","false","",""
"","psychophysics","55","609053","0.0-2.0-1.17","aea","[""R""]","","","","","","null","key","null","null","16.67289999999921","912","513","2","1","1","1","1","","",""
"","psychophysics","56","610067","0.0-2.0-3.17-0.17","aea","[""R""]","","","","","","null","key","null","null","16.679305084746222","912","513","2","1","1","1","1","","",""
"","psychophysics","57","617440","0.0-2.0-0.18","aea","[""R""]","","","","","","6669","key","z","z","16.671719457013626","912","513","1","0","0","0","1","true","",""
"","psychophysics","58","618453","0.0-2.0-1.18","aea","[""R""]","","","","","","null","key","null","null","16.66969491525403","912","513","1","0","0","0","1","","",""
"","psychophysics","59","619460","0.0-2.0-2.18-0.18","aea","[""R""]","","","","","","null","key","null","null","16.673950000000573","912","513","1","0","0","0","1","","",""
"","psychophysics","60","634645","0.0-2.0-0.19","aea","[""R""]","","","","","","14473","key","z","z","16.67180109890101","912","513","1","1","1","1","1","true","",""
"","psychophysics","61","635658","0.0-2.0-1.19","aea","[""R""]","","","","","","null","key","null","null","16.67284745762669","912","513","1","1","1","1","1","","",""
"","psychophysics","62","636668","0.0-2.0-2.19-0.19","aea","[""R""]","","","","","","null","key","null","null","16.67168333333296","912","513","1","1","1","1","1","","",""
"","psychophysics","63","641465","0.0-2.0-0.20","aea","[""R""]","","","","","","4093","key","m","m","16.6718641114985","912","513","2","0","1","0","1","true","",""
"","psychophysics","64","642477","0.0-2.0-1.20","aea","[""R""]","","","","","","null","key","null","null","16.671830508473203","912","513","2","0","1","0","1","","",""
"","psychophysics","65","643492","0.0-2.0-2.20-0.20","aea","[""R""]","","","","","","null","key","null","null","16.671916666667677","912","513","2","0","1","0","1","","",""
"","psychophysics","66","646725","0.0-2.0-0.21","aea","[""R""]","","","","","","2527","key","z","z","16.672103626943084","912","513","1","0","1","1","1","true","",""
"","psychophysics","67","647740","0.0-2.0-1.21","aea","[""R""]","","","","","","null","key","null","null","16.6729666666671","912","513","1","0","1","1","1","","",""
"","psychophysics","68","648756","0.0-2.0-2.21-0.21","aea","[""R""]","","","","","","null","key","null","null","16.672666666666434","912","513","1","0","1","1","1","","",""
"","psychophysics","69","655919","0.0-2.0-0.22","aea","[""R""]","","","","","","6457","key","z","z","16.671941724941806","912","513","2","1","0","1","0","false","",""
"","psychophysics","70","656932","0.0-2.0-1.22","aea","[""R""]","","","","","","null","key","null","null","16.67181355932183","912","513","2","1","0","1","0","","",""
"","psychophysics","71","657948","0.0-2.0-3.22-0.22","aea","[""R""]","","","","","","null","key","null","null","16.671816666664867","912","513","2","1","0","1","0","","",""
"","psychophysics","72","660904","0.0-2.0-0.23","aea","[""R""]","","","","","","2251","key","z","z","16.671474576270665","912","513","1","1","1","1","1","true","",""
"","psychophysics","73","661914","0.0-2.0-1.23","aea","[""R""]","","","","","","null","key","null","null","16.67242372881274","912","513","1","1","1","1","1","","",""
"","psychophysics","74","662925","0.0-2.0-2.23-0.23","aea","[""R""]","","","","","","null","key","null","null","16.955389830508757","912","513","1","1","1","1","1","","",""
"","psychophysics","75","669556","0.0-2.0-0.24","aea","[""R""]","","","","","","5923","key","z","z","16.671954659949776","912","513","2","1","1","1","0","false","",""
"","psychophysics","76","670565","0.0-2.0-1.24","aea","[""R""]","","","","","","null","key","null","null","16.671915254237966","912","513","2","1","1","1","0","","",""
"","psychophysics","77","671580","0.0-2.0-3.24-0.24","aea","[""R""]","","","","","","null","key","null","null","16.672550000000047","912","513","2","1","1","1","0","","",""
"","psychophysics","78","675158","0.0-2.0-0.25","aea","[""R""]","","","","","","2872","key","z","z","16.67210280373812","912","513","1","0","1","0","1","true","",""
"","psychophysics","79","676171","0.0-2.0-1.25","aea","[""R""]","","","","","","null","key","null","null","16.67176271186376","912","513","1","0","1","0","1","","",""
"","psychophysics","80","677181","0.0-2.0-2.25-0.25","aea","[""R""]","","","","","","null","key","null","null","16.67176666666637","912","513","1","0","1","0","1","","",""
"","psychophysics","81","682629","0.0-2.0-0.26","aea","[""R""]","","","","","","4741","key","z","z","16.672015337423105","912","513","1","0","0","0","1","true","",""
"","psychophysics","82","683637","0.0-2.0-1.26","aea","[""R""]","","","","","","null","key","null","null","16.67177966101711","912","513","1","0","0","0","1","","",""
"","psychophysics","83","684653","0.0-2.0-2.26-0.26","aea","[""R""]","","","","","","null","key","null","null","16.67278333333476","912","513","1","0","0","0","1","","",""
"","psychophysics","84","689663","0.0-2.0-0.27","aea","[""R""]","","","","","","4302","key","z","z","16.67209333333342","912","513","2","0","1","1","0","false","",""
"","psychophysics","85","690685","0.0-2.0-1.27","aea","[""R""]","","","","","","null","key","null","null","16.67280000000028","912","513","2","0","1","1","0","","",""
"","psychophysics","86","691696","0.0-2.0-3.27-0.27","aea","[""R""]","","","","","","null","key","null","null","16.672950000001585","912","513","2","0","1","1","0","","",""
"","psychophysics","87","697148","0.0-2.0-0.28","aea","[""R""]","","","","","","4744","key","m","m","16.72304307692326","912","513","1","1","0","1","1","false","",""
"","psychophysics","88","698157","0.0-2.0-1.28","aea","[""R""]","","","","","","null","key","null","null","16.67210169491492","912","513","1","1","0","1","1","","",""
"","psychophysics","89","699172","0.0-2.0-3.28-0.28","aea","[""R""]","","","","","","null","key","null","null","16.672850000000714","912","513","1","1","0","1","1","","",""
"","psychophysics","90","702941","0.0-2.0-0.29","aea","[""R""]","","","","","","3064","key","z","z","16.67209333333342","912","513","1","1","1","1","1","true","",""
"","psychophysics","91","703957","0.0-2.0-1.29","aea","[""R""]","","","","","","null","key","null","null","16.672466666666637","912","513","1","1","1","1","1","","",""
"","psychophysics","92","704966","0.0-2.0-2.29-0.29","aea","[""R""]","","","","","","null","key","null","null","16.672216666668344","912","513","1","1","1","1","1","","",""
"","psychophysics","93","711508","0.0-2.0-0.30","aea","[""R""]","","","","","","5831","key","m","m","16.67178772378515","912","513","2","1","0","1","0","true","",""
"","psychophysics","94","712519","0.0-2.0-1.30","aea","[""R""]","","","","","","null","key","null","null","16.672933333334125","912","513","2","1","0","1","0","","",""
"","psychophysics","95","713532","0.0-2.0-2.30-0.30","aea","[""R""]","","","","","","null","key","null","null","16.671694915254317","912","513","2","1","0","1","0","","",""
"","psychophysics","96","717689","0.0-2.0-0.31","aea","[""R""]","","","","","","3451","key","m","m","16.671779116465576","912","513","2","1","1","1","0","true","",""
"","psychophysics","97","718701","0.0-2.0-1.31","aea","[""R""]","","","","","","null","key","null","null","16.67201694915213","912","513","2","1","1","1","0","","",""
"","psychophysics","98","719718","0.0-2.0-2.31-0.31","aea","[""R""]","","","","","","null","key","null","null","16.671649999999985","912","513","2","1","1","1","0","","",""
"","psychophysics","99","724207","0.0-2.0-0.32","aea","[""R""]","","","","","","3785","key","m","m","16.67180669144987","912","513","2","1","0","1","1","true","",""
"","psychophysics","100","725219","0.0-2.0-1.32","aea","[""R""]","","","","","","null","key","null","null","16.671830508475175","912","513","2","1","0","1","1","","",""
"","psychophysics","101","726229","0.0-2.0-2.32-0.32","aea","[""R""]","","","","","","null","key","null","null","16.675866666667087","912","513","2","1","0","1","1","","",""
"","psychophysics","102","730493","0.0-2.0-0.33","aea","[""R""]","","","","","","3559","key","z","z","16.671298039215618","912","513","1","1","0","1","1","true","",""
"","psychophysics","103","731501","0.0-2.0-1.33","aea","[""R""]","","","","","","null","key","null","null","16.67127118644036","912","513","1","1","0","1","1","","",""
"","psychophysics","104","732517","0.0-2.0-2.33-0.33","aea","[""R""]","","","","","","null","key","null","null","16.673216666667333","912","513","1","1","0","1","1","","",""
"","psychophysics","105","737205","0.0-2.0-0.34","aea","[""R""]","","","","","","3983","key","z","z","16.671989285714307","912","513","1","1","1","1","1","true","",""
"","psychophysics","106","738221","0.0-2.0-1.34","aea","[""R""]","","","","","","null","key","null","null","16.672733333332385","912","513","1","1","1","1","1","","",""
"","psychophysics","107","739236","0.0-2.0-2.34-0.34","aea","[""R""]","","","","","","null","key","null","null","16.672749999999844","912","513","1","1","1","1","1","","",""
"","psychophysics","108","743646","0.0-2.0-0.35","aea","[""R""]","","","","","","3706","key","z","z","16.671973484848312","912","513","2","0","0","1","1","false","",""
"","psychophysics","109","744659","0.0-2.0-1.35","aea","[""R""]","","","","","","null","key","null","null","16.6713728813565","912","513","2","0","0","1","1","","",""
"","psychophysics","110","745669","0.0-2.0-3.35-0.35","aea","[""R""]","","","","","","null","key","null","null","16.671850000001722","912","513","2","0","0","1","1","","",""
"","psychophysics","111","749798","0.0-2.0-0.36","aea","[""R""]","","","","","","3425","key","z","z","16.671991902834318","912","513","1","0","1","0","1","true","",""
"","psychophysics","112","750816","0.0-2.0-1.36","aea","[""R""]","","","","","","null","key","null","null","16.677149999999287","912","513","1","0","1","0","1","","",""
"","psychophysics","113","751828","0.0-2.0-2.36-0.36","aea","[""R""]","","","","","","null","key","null","null","16.672389830508017","912","513","1","0","1","0","1","","",""
"","psychophysics","114","755685","0.0-2.0-0.37","aea","[""R""]","","","","","","3153","key","m","m","16.67183982684011","912","513","1","0","0","1","0","false","",""
"","psychophysics","115","756693","0.0-2.0-1.37","aea","[""R""]","","","","","","null","key","null","null","16.671745762712387","912","513","1","0","0","1","0","","",""
"","psychophysics","116","757709","0.0-2.0-3.37-0.37","aea","[""R""]","","","","","","null","key","null","null","16.67269999999941","912","513","1","0","0","1","0","","",""
"","psychophysics","117","765644","0.0-2.0-0.38","aea","[""R""]","","","","","","7231","key","m","m","16.671846315789427","912","513","2","0","1","0","1","true","",""
"","psychophysics","118","766661","0.0-2.0-1.38","aea","[""R""]","","","","","","null","key","null","null","16.668633333333613","912","513","2","0","1","0","1","","",""
"","psychophysics","119","767677","0.0-2.0-2.38-0.38","aea","[""R""]","","","","","","null","key","null","null","16.672683333333893","912","513","2","0","1","0","1","","",""
"","psychophysics","120","771501","0.0-2.0-0.39","aea","[""R""]","","","","","","3120","key","z","z","16.67203947368411","912","513","1","0","1","1","1","true","",""
"","psychophysics","121","772508","0.0-2.0-1.39","aea","[""R""]","","","","","","null","key","null","null","16.672683333331953","912","513","1","0","1","1","1","","",""
"","psychophysics","122","773517","0.0-2.0-2.39-0.39","aea","[""R""]","","","","","","null","key","null","null","16.959758620691115","912","513","1","0","1","1","1","","",""
"","psychophysics","123","776796","0.0-2.0-0.40","aea","[""R""]","","","","","","2575","key","m","m","16.671816326530497","912","513","2","1","1","1","1","true","",""
"","psychophysics","124","777805","0.0-2.0-1.40","aea","[""R""]","","","","","","null","key","null","null","16.67286666666623","912","513","2","1","1","1","1","","",""
"","psychophysics","125","778823","0.0-2.0-2.40-0.40","aea","[""R""]","","","","","","null","key","null","null","16.6728166666658","912","513","2","1","1","1","1","","",""
"","psychophysics","126","781917","0.0-2.0-0.41","aea","[""R""]","","","","","","2384","key","m","m","16.67179891304366","912","513","2","1","1","1","1","true","",""
"","psychophysics","127","782924","0.0-2.0-1.41","aea","[""R""]","","","","","","null","key","null","null","16.672349999998307","912","513","2","1","1","1","1","","",""
"","psychophysics","128","783937","0.0-2.0-2.41-0.41","aea","[""R""]","","","","","","null","key","null","null","16.671508474575386","912","513","2","1","1","1","1","","",""
"","psychophysics","129","787348","0.0-2.0-0.42","aea","[""R""]","","","","","","2707","key","m","m","16.671813725489855","912","513","1","1","0","0","1","false","",""
"","psychophysics","130","788355","0.0-2.0-1.42","aea","[""R""]","","","","","","null","key","null","null","16.6725593220336","912","513","1","1","0","0","1","","",""
"","psychophysics","131","789365","0.0-2.0-3.42-0.42","aea","[""R""]","","","","","","null","key","null","null","16.67160000000149","912","513","1","1","0","0","1","","",""
"","psychophysics","132","794572","0.0-2.0-0.43","aea","[""R""]","","","","","","4499","key","z","z","16.67176527331188","912","513","2","1","0","1","0","false","",""
"","psychophysics","133","795576","0.0-2.0-1.43","aea","[""R""]","","","","","","null","key","null","null","16.673898305084904","912","513","2","1","0","1","0","","",""
"","psychophysics","134","796589","0.0-2.0-3.43-0.43","aea","[""R""]","","","","","","null","key","null","null","16.63485000000025","912","513","2","1","0","1","0","","",""
"","psychophysics","135","800420","0.0-2.0-0.44","aea","[""R""]","","","","","","3125","key","z","z","16.745206140350906","912","513","1","0","1","1","1","true","",""
"","psychophysics","136","801430","0.0-2.0-1.44","aea","[""R""]","","","","","","null","key","null","null","16.67271666666687","912","513","1","0","1","1","1","","",""
"","psychophysics","137","802443","0.0-2.0-2.44-0.44","aea","[""R""]","","","","","","null","key","null","null","16.671610169491526","912","513","1","0","1","1","1","","",""
"","psychophysics","138","812973","0.0-2.0-0.45","aea","[""R""]","","","","","","9825","key","m","m","16.671870047543692","912","513","1","0","0","0","1","false","",""
"","psychophysics","139","813980","0.0-2.0-1.45","aea","[""R""]","","","","","","null","key","null","null","16.67289830508476","912","513","1","0","0","0","1","","",""
"","psychophysics","140","814997","0.0-2.0-3.45-0.45","aea","[""R""]","","","","","","null","key","null","null","16.671933333333193","912","513","1","0","0","0","1","","",""
"","psychophysics","141","821124","0.0-2.0-0.46","aea","[""R""]","","","","","","5423","key","m","m","16.671803814713964","912","513","2","1","0","1","1","true","",""
"","psychophysics","142","822132","0.0-2.0-1.46","aea","[""R""]","","","","","","null","key","null","null","16.663101694915618","912","513","2","1","0","1","1","","",""
"","psychophysics","143","823149","0.0-2.0-2.46-0.46","aea","[""R""]","","","","","","null","key","null","null","16.67176666666637","912","513","2","1","0","1","1","","",""
"","psychophysics","144","826892","0.0-2.0-0.47","aea","[""R""]","","","","","","3039","key","z","z","16.67185267857141","912","513","2","1","1","0","0","false","",""
"","psychophysics","145","827901","0.0-2.0-1.47","aea","[""R""]","","","","","","null","key","null","null","16.67088135593113","912","513","2","1","1","0","0","","",""
"","psychophysics","146","828921","0.0-2.0-3.47-0.47","aea","[""R""]","","","","","","null","key","null","null","16.671934426229708","912","513","2","1","1","0","0","","",""
"","psychophysics","147","833236","0.0-2.0-0.48","aea","[""R""]","","","","","","3607","key","m","m","16.671828793774445","912","513","2","1","0","1","1","true","",""
"","psychophysics","148","834244","0.0-2.0-1.48","aea","[""R""]","","","","","","null","key","null","null","16.672383333333226","912","513","2","1","0","1","1","","",""
"","psychophysics","149","835256","0.0-2.0-2.48-0.48","aea","[""R""]","","","","","","null","key","null","null","16.6729666666671","912","513","2","1","0","1","1","","",""
"","psychophysics","150","838700","0.0-2.0-0.49","aea","[""R""]","","","","","","2736","key","z","z","16.671780487804718","912","513","2","0","0","1","1","false","",""
"","psychophysics","151","839709","0.0-2.0-1.49","aea","[""R""]","","","","","","null","key","null","null","16.673100000000947","912","513","2","0","0","1","1","","",""
"","psychophysics","152","840721","0.0-2.0-3.49-0.49","aea","[""R""]","","","","","","null","key","null","null","16.67167796610294","912","513","2","0","0","1","1","","",""
"","psychophysics","153","844260","0.0-2.0-0.50","aea","[""R""]","","","","","","2834","key","z","z","16.671617924528448","912","513","2","0","0","1","0","false","",""
"","psychophysics","154","845269","0.0-2.0-1.50","aea","[""R""]","","","","","","null","key","null","null","16.672525423728878","912","513","2","0","0","1","0","","",""
"","psychophysics","155","846285","0.0-2.0-3.50-0.50","aea","[""R""]","","","","","","null","key","null","null","16.672633333333458","912","513","2","0","0","1","0","","",""
"","psychophysics","156","851332","0.0-2.0-0.51","aea","[""R""]","","","","","","4344","key","m","m","16.67200993377498","912","513","2","0","0","1","1","true","",""
"","psychophysics","157","852341","0.0-2.0-1.51","aea","[""R""]","","","","","","null","key","null","null","16.67177966101711","912","513","2","0","0","1","1","","",""
"","psychophysics","158","853357","0.0-2.0-2.51-0.51","aea","[""R""]","","","","","","null","key","null","null","16.671399999999753","912","513","2","0","0","1","1","","",""
"","psychophysics","159","858015","0.0-2.0-0.52","aea","[""R""]","","","","","","3952","key","m","m","16.67203225806484","912","513","2","1","0","1","0","true","",""
"","psychophysics","160","859027","0.0-2.0-1.52","aea","[""R""]","","","","","","null","key","null","null","16.67106779661006","912","513","2","1","0","1","0","","",""
"","psychophysics","161","860036","0.0-2.0-2.52-0.52","aea","[""R""]","","","","","","null","key","null","null","16.671950000000653","912","513","2","1","0","1","0","","",""
"","psychophysics","162","863366","0.0-2.0-0.53","aea","[""R""]","","","","","","2626","key","m","m","16.672145728643716","912","513","2","1","0","1","1","true","",""
"","psychophysics","163","864379","0.0-2.0-1.53","aea","[""R""]","","","","","","null","key","null","null","16.67176271186376","912","513","2","1","0","1","1","","",""
"","psychophysics","164","865389","0.0-2.0-2.53-0.53","aea","[""R""]","","","","","","null","key","null","null","16.67168333333296","912","513","2","1","0","1","1","","",""
"","psychophysics","165","872940","0.0-2.0-0.54","aea","[""R""]","","","","","","6844","key","m","m","16.67194247787609","912","513","2","0","1","1","1","true","",""
"","psychophysics","166","873948","0.0-2.0-1.54","aea","[""R""]","","","","","","null","key","null","null","16.671796610170453","912","513","2","0","1","1","1","","",""
"","psychophysics","167","874965","0.0-2.0-2.54-0.54","aea","[""R""]","","","","","","null","key","null","null","16.671916666667677","912","513","2","0","1","1","1","","",""
"","psychophysics","168","879021","0.0-2.0-0.55","aea","[""R""]","","","","","","3352","key","m","m","16.671794238683304","912","513","1","0","0","1","1","false","",""
"","psychophysics","169","880029","0.0-2.0-1.55","aea","[""R""]","","","","","","null","key","null","null","16.671864406779896","912","513","1","0","0","1","1","","",""
"","psychophysics","170","881044","0.0-2.0-3.55-0.55","aea","[""R""]","","","","","","null","key","null","null","16.672849999998775","912","513","1","0","0","1","1","","",""
"","psychophysics","171","884548","0.0-2.0-0.56","aea","[""R""]","","","","","","2797","key","m","m","16.672119617224872","912","513","2","0","1","1","1","true","",""
"","psychophysics","172","885555","0.0-2.0-1.56","aea","[""R""]","","","","","","null","key","null","null","16.67233333333279","912","513","2","0","1","1","1","","",""
"","psychophysics","173","886572","0.0-2.0-2.56-0.56","aea","[""R""]","","","","","","null","key","null","null","16.672666666666434","912","513","2","0","1","1","1","","",""
"","psychophysics","174","897597","0.0-2.0-0.57","aea","[""R""]","","","","","","10320","key","m","m","16.67208636363644","912","513","1","1","0","0","1","false","",""
"","psychophysics","175","898610","0.0-2.0-1.57","aea","[""R""]","","","","","","null","key","null","null","16.67278333333476","912","513","1","1","0","0","1","","",""
"","psychophysics","176","899621","0.0-2.0-3.57-0.57","aea","[""R""]","","","","","","null","key","null","null","16.959362068966207","912","513","1","1","0","0","1","","",""
"","psychophysics","177","903046","0.0-2.0-0.58","aea","[""R""]","","","","","","2719","key","m","m","16.672107317073202","912","513","2","1","1","1","1","true","",""
"","psychophysics","178","904058","0.0-2.0-1.58","aea","[""R""]","","","","","","null","key","null","null","16.671830508475175","912","513","2","1","1","1","1","","",""
"","psychophysics","179","905069","0.0-2.0-2.58-0.58","aea","[""R""]","","","","","","null","key","null","null","16.67178333333189","912","513","2","1","1","1","1","","",""
"","psychophysics","180","908548","0.0-2.0-0.59","aea","[""R""]","","","","","","2773","key","z","z","16.67211538461561","912","513","1","1","1","1","1","true","",""
"","psychophysics","181","909557","0.0-2.0-1.59","aea","[""R""]","","","","","","null","key","null","null","16.671745762712387","912","513","1","1","1","1","1","","",""
"","psychophysics","182","910573","0.0-2.0-2.59-0.59","aea","[""R""]","","","","","","null","key","null","null","16.67278333333282","912","513","1","1","1","1","1","","",""
"","psychophysics","183","914044","0.0-2.0-0.60","aea","[""R""]","","","","","","2767","key","z","z","16.753053398058608","912","513","2","1","1","1","0","false","",""
"","psychophysics","184","915052","0.0-2.0-1.60","aea","[""R""]","","","","","","null","key","null","null","16.67288333333369","912","513","2","1","1","1","0","","",""
"","psychophysics","185","916062","0.0-2.0-3.60-0.60","aea","[""R""]","","","","","","null","key","null","null","16.67291525423811","912","513","2","1","1","1","0","","",""
"","psychophysics","186","919756","0.0-2.0-0.61","aea","[""R""]","","","","","","2991","key","m","m","16.67159276018109","912","513","1","1","0","0","1","false","",""
"","psychophysics","187","920766","0.0-2.0-1.61","aea","[""R""]","","","","","","null","key","null","null","16.672733333332385","912","513","1","1","0","0","1","","",""
"","psychophysics","188","921789","0.0-2.0-3.61-0.61","aea","[""R""]","","","","","","null","key","null","null","16.67305000000051","912","513","1","1","0","0","1","","",""
"","psychophysics","189","924876","0.0-2.0-0.62","aea","[""R""]","","","","","","2379","key","m","m","16.672152173912924","912","513","2","1","1","0","1","true","",""
"","psychophysics","190","925885","0.0-2.0-1.62","aea","[""R""]","","","","","","null","key","null","null","16.955457627120175","912","513","2","1","1","0","1","","",""
"","psychophysics","191","926898","0.0-2.0-2.62-0.62","aea","[""R""]","","","","","","null","key","null","null","16.671915254237966","912","513","2","1","1","0","1","","",""
"","psychophysics","192","930372","0.0-2.0-0.63","aea","[""R""]","","","","","","2769","key","z","z","16.67177403846178","912","513","1","0","0","1","1","true","",""
"","psychophysics","193","931381","0.0-2.0-1.63","aea","[""R""]","","","","","","null","key","null","null","16.671796610170453","912","513","1","0","0","1","1","","",""
"","psychophysics","194","932397","0.0-2.0-2.63-0.63","aea","[""R""]","","","","","","null","key","null","null","16.67269999999941","912","513","1","0","0","1","1","","",""
"","psychophysics","195","939828","0.0-2.0-0.64","aea","[""R""]","","","","","","6724","key","m","m","16.67192584269659","912","513","2","1","1","1","1","true","",""
"","psychophysics","196","940836","0.0-2.0-1.64","aea","[""R""]","","","","","","null","key","null","null","16.672288135593853","912","513","2","1","1","1","1","","",""
"","psychophysics","197","941853","0.0-2.0-2.64-0.64","aea","[""R""]","","","","","","null","key","null","null","16.671866666667242","912","513","2","1","1","1","1","","",""
"","psychophysics","198","945252","0.0-2.0-0.65","aea","[""R""]","","","","","","2695","key","z","z","16.67178817734001","912","513","1","1","0","1","1","true","",""
"","psychophysics","199","946261","0.0-2.0-1.65","aea","[""R""]","","","","","","null","key","null","null","16.673183333332418","912","513","1","1","0","1","1","","",""
"","psychophysics","200","947271","0.0-2.0-2.65-0.65","aea","[""R""]","","","","","","null","key","null","null","16.673067796610344","912","513","1","1","0","1","1","","",""
"","psychophysics","201","949310","0.0-2.0-0.66","aea","[""R""]","","","","","","1334","key","z","z","16.671901639343858","912","513","1","0","1","0","1","true","",""
"","psychophysics","202","950316","0.0-2.0-1.66","aea","[""R""]","","","","","","null","key","null","null","16.671949152542688","912","513","1","0","1","0","1","","",""
"","psychophysics","203","951326","0.0-2.0-2.66-0.66","aea","[""R""]","","","","","","null","key","null","null","16.672683333333893","912","513","1","0","1","0","1","","",""
"","psychophysics","204","952604","0.0-2.0-0.67","aea","[""R""]","","","","","","567","key","m","m","16.67262666666725","912","513","2","0","1","1","1","true","",""
"","psychophysics","205","953613","0.0-2.0-1.67","aea","[""R""]","","","","","","null","key","null","null","16.671716666667876","912","513","2","0","1","1","1","","",""
"","psychophysics","206","954623","0.0-2.0-2.67-0.67","aea","[""R""]","","","","","","null","key","null","null","16.66984745762824","912","513","2","0","1","1","1","","",""
"","psychophysics","207","957484","0.0-2.0-0.68","aea","[""R""]","","","","","","2156","key","z","z","16.672087719298393","912","513","1","1","1","0","0","true","",""
"","psychophysics","208","958491","0.0-2.0-1.68","aea","[""R""]","","","","","","null","key","null","null","16.672796610168625","912","513","1","1","1","0","0","","",""
"","psychophysics","209","959500","0.0-2.0-2.68-0.68","aea","[""R""]","","","","","","null","key","null","null","16.671633333332526","912","513","1","1","1","0","0","","",""
"","psychophysics","210","960803","0.0-2.0-0.69","aea","[""R""]","","","","","","599","key","z","z","16.672584415584282","912","513","2","1","1","1","0","false","",""
"","psychophysics","211","961812","0.0-2.0-1.69","aea","[""R""]","","","","","","null","key","null","null","16.67271666666493","912","513","2","1","1","1","0","","",""
"","psychophysics","212","962826","0.0-2.0-3.69-0.69","aea","[""R""]","","","","","","null","key","null","null","16.671508474575386","912","513","2","1","1","1","0","","",""
"","psychophysics","213","964764","0.0-2.0-0.70","aea","[""R""]","","","","","","1234","key","z","z","16.671844827585275","912","513","2","0","0","0","1","false","",""
"","psychophysics","214","965773","0.0-2.0-1.70","aea","[""R""]","","","","","","null","key","null","null","16.66927118644205","912","513","2","0","0","0","1","","",""
"","psychophysics","215","966777","0.0-2.0-3.70-0.70","aea","[""R""]","","","","","","null","key","null","null","16.674271186440787","912","513","2","0","0","0","1","","",""
"","psychophysics","216","968236","0.0-2.0-0.71","aea","[""R""]","","","","","","755","key","z","z","16.671816091955073","912","513","2","0","0","1","1","false","",""
"","psychophysics","217","969244","0.0-2.0-1.71","aea","[""R""]","","","","","","null","key","null","null","16.672000000000757","912","513","2","0","0","1","1","","",""
"","psychophysics","218","970261","0.0-2.0-3.71-0.71","aea","[""R""]","","","","","","null","key","null","null","16.672016666666604","912","513","2","0","0","1","1","","",""
"","psychophysics","219","973756","0.0-2.0-0.72","aea","[""R""]","","","","","","2791","key","z","z","16.672832535885043","912","513","2","1","0","0","1","false","",""
"","psychophysics","220","974766","0.0-2.0-1.72","aea","[""R""]","","","","","","null","key","null","null","16.67306666666797","912","513","2","1","0","0","1","","",""
"","psychophysics","221","975780","0.0-2.0-3.72-0.72","aea","[""R""]","","","","","","null","key","null","null","16.95843103448138","912","513","2","1","0","0","1","","",""
"","psychophysics","222","979780","0.0-2.0-0.73","aea","[""R""]","","","","","","3296","key","m","m","16.671786610878787","912","513","2","1","1","1","1","true","",""
"","psychophysics","223","980788","0.0-2.0-1.73","aea","[""R""]","","","","","","null","key","null","null","16.6728166666658","912","513","2","1","1","1","1","","",""
"","psychophysics","224","981813","0.0-2.0-2.73-0.73","aea","[""R""]","","","","","","null","key","null","null","16.672533333332588","912","513","2","1","1","1","1","","",""
"","psychophysics","225","984891","0.0-2.0-0.74","aea","[""R""]","","","","","","2373","key","z","z","16.672163043478022","912","513","2","1","1","0","1","false","",""
"","psychophysics","226","985900","0.0-2.0-1.74","aea","[""R""]","","","","","","null","key","null","null","16.672694915254457","912","513","2","1","1","0","1","","",""
"","psychophysics","227","986916","0.0-2.0-3.74-0.74","aea","[""R""]","","","","","","null","key","null","null","16.67068333333203","912","513","2","1","1","0","1","","",""
"","psychophysics","228","990156","0.0-2.0-0.75","aea","[""R""]","","","","","","2535","key","m","m","16.67222680412377","912","513","2","1","0","1","1","true","",""
"","psychophysics","229","991165","0.0-2.0-1.75","aea","[""R""]","","","","","","null","key","null","null","16.671169491524225","912","513","2","1","0","1","1","","",""
"","psychophysics","230","992181","0.0-2.0-2.75-0.75","aea","[""R""]","","","","","","null","key","null","null","16.67294999999964","912","513","2","1","0","1","1","","",""
"","psychophysics","231","995747","0.0-2.0-0.76","aea","[""R""]","","","","","","2859","key","m","m","16.672075117370902","912","513","2","0","1","1","1","true","",""
"","psychophysics","232","996756","0.0-2.0-1.76","aea","[""R""]","","","","","","null","key","null","null","16.672933333334125","912","513","2","0","1","1","1","","",""
"","psychophysics","233","997781","0.0-2.0-2.76-0.76","aea","[""R""]","","","","","","null","key","null","null","16.67281666666774","912","513","2","0","1","1","1","","",""
"","psychophysics","234","1000252","0.0-2.0-0.77","aea","[""R""]","","","","","","1765","key","m","m","16.672238095238214","912","513","2","1","1","1","1","true","",""
"","psychophysics","235","1001260","0.0-2.0-1.77","aea","[""R""]","","","","","","null","key","null","null","16.672850000000714","912","513","2","1","1","1","1","","",""
"","psychophysics","236","1002271","0.0-2.0-2.77-0.77","aea","[""R""]","","","","","","null","key","null","null","16.671610169491526","912","513","2","1","1","1","1","","",""
"","psychophysics","237","1005756","0.0-2.0-0.78","aea","[""R""]","","","","","","2781","key","m","m","16.671706730769074","912","513","1","0","1","1","0","false","",""
"","psychophysics","238","1006765","0.0-2.0-1.78","aea","[""R""]","","","","","","null","key","null","null","16.672633333333458","912","513","1","0","1","1","0","","",""
"","psychophysics","239","1007777","0.0-2.0-3.78-0.78","aea","[""R""]","","","","","","null","key","null","null","16.671566666666575","912","513","1","0","1","1","0","","",""
"","psychophysics","240","1010988","0.0-2.0-0.79","aea","[""R""]","","","","","","2503","key","m","m","16.672246073298304","912","513","2","1","1","1","0","true","",""
"","psychophysics","241","1011996","0.0-2.0-1.79","aea","[""R""]","","","","","","null","key","null","null","16.673199999999877","912","513","2","1","1","1","0","","",""
"","psychophysics","242","1013008","0.0-2.0-2.79-0.79","aea","[""R""]","","","","","","null","key","null","null","16.671305084747058","912","513","2","1","1","1","0","","",""
"","psychophysics","243","1018099","0.0-2.0-0.80","aea","[""R""]","","","","","","4387","key","m","m","16.67189836065575","912","513","1","0","0","1","1","false","",""
"","psychophysics","244","1019110","0.0-2.0-1.80","aea","[""R""]","","","","","","null","key","null","null","16.671610169491526","912","513","1","0","0","1","1","","",""
"","psychophysics","245","1020125","0.0-2.0-3.80-0.80","aea","[""R""]","","","","","","null","key","null","null","16.67176666666637","912","513","1","0","0","1","1","","",""
"","psychophysics","246","1023307","0.0-2.0-0.81","aea","[""R""]","","","","","","2477","key","z","z","16.672115789473327","912","513","1","0","1","1","1","true","",""
"","psychophysics","247","1024315","0.0-2.0-1.81","aea","[""R""]","","","","","","null","key","null","null","16.67278333333282","912","513","1","0","1","1","1","","",""
"","psychophysics","248","1025325","0.0-2.0-2.81-0.81","aea","[""R""]","","","","","","null","key","null","null","16.67177966101711","912","513","1","0","1","1","1","","",""
"","psychophysics","249","1028643","0.0-2.0-0.82","aea","[""R""]","","","","","","2611","key","m","m","16.672141414141574","912","513","2","0","1","1","0","true","",""
"","psychophysics","250","1029659","0.0-2.0-1.82","aea","[""R""]","","","","","","null","key","null","null","16.673283333333288","912","513","2","0","1","1","0","","",""
"","psychophysics","251","1030668","0.0-2.0-2.82-0.82","aea","[""R""]","","","","","","null","key","null","null","16.672916666666666","912","513","2","0","1","1","0","","",""
"","psychophysics","252","1032268","0.0-2.0-0.83","aea","[""R""]","","","","","","895","key","z","z","16.671799999999962","912","513","1","0","1","1","1","true","",""
"","psychophysics","253","1033277","0.0-2.0-1.83","aea","[""R""]","","","","","","null","key","null","null","16.671559322033456","912","513","1","0","1","1","1","","",""
"","psychophysics","254","1034293","0.0-2.0-2.83-0.83","aea","[""R""]","","","","","","null","key","null","null","16.672766666667304","912","513","1","0","1","1","1","","",""
"","psychophysics","255","1037003","0.0-2.0-0.84","aea","[""R""]","","","","","","2005","key","z","z","16.672185185185725","912","513","1","1","1","1","1","true","",""
"","psychophysics","256","1038013","0.0-2.0-1.84","aea","[""R""]","","","","","","null","key","null","null","16.67172881355904","912","513","1","1","1","1","1","","",""
"","psychophysics","257","1039029","0.0-2.0-2.84-0.84","aea","[""R""]","","","","","","null","key","null","null","16.672733333332385","912","513","1","1","1","1","1","","",""
"","psychophysics","258","1042011","0.0-2.0-0.85","aea","[""R""]","","","","","","2278","key","m","m","16.67209550561815","912","513","2","0","1","0","1","true","",""
"","psychophysics","259","1043021","0.0-2.0-1.85","aea","[""R""]","","","","","","null","key","null","null","16.672916666666666","912","513","2","0","1","0","1","","",""
"","psychophysics","260","1044034","0.0-2.0-2.85-0.85","aea","[""R""]","","","","","","null","key","null","null","16.67174576271041","912","513","2","0","1","0","1","","",""
"","psychophysics","261","1046807","0.0-2.0-0.86","aea","[""R""]","","","","","","2068","key","m","m","16.671753012047834","912","513","2","0","0","1","1","true","",""
"","psychophysics","262","1047819","0.0-2.0-1.86","aea","[""R""]","","","","","","null","key","null","null","16.671593220340153","912","513","2","0","0","1","1","","",""
"","psychophysics","263","1048829","0.0-2.0-2.86-0.86","aea","[""R""]","","","","","","null","key","null","null","16.672016666666604","912","513","2","0","0","1","1","","",""
"","psychophysics","264","1053875","0.0-2.0-0.87","aea","[""R""]","","","","","","4339","key","z","z","16.6720596026492","912","513","2","1","0","0","1","false","",""
"","psychophysics","265","1054885","0.0-2.0-1.87","aea","[""R""]","","","","","","null","key","null","null","16.671915254235994","912","513","2","1","0","0","1","","",""
"","psychophysics","266","1055901","0.0-2.0-3.87-0.87","aea","[""R""]","","","","","","null","key","null","null","16.672649999998974","912","513","2","1","0","0","1","","",""
"","psychophysics","267","1058899","0.0-2.0-0.88","aea","[""R""]","","","","","","2290","key","z","z","16.672100558658467","912","513","1","1","0","1","1","true","",""
"","psychophysics","268","1059909","0.0-2.0-1.88","aea","[""R""]","","","","","","null","key","null","null","16.672916666666666","912","513","1","1","0","1","1","","",""
"","psychophysics","269","1060923","0.0-2.0-2.88-0.88","aea","[""R""]","","","","","","null","key","null","null","16.671423728810623","912","513","1","1","0","1","1","","",""
"","psychophysics","270","1065155","0.0-2.0-0.89","aea","[""R""]","","","","","","3526","key","m","m","16.671731225296803","912","513","1","0","1","0","1","false","",""
"","psychophysics","271","1066164","0.0-2.0-1.89","aea","[""R""]","","","","","","null","key","null","null","16.672833333335195","912","513","1","0","1","0","1","","",""
"","psychophysics","272","1067175","0.0-2.0-3.89-0.89","aea","[""R""]","","","","","","null","key","null","null","16.95944827586284","912","513","1","0","1","0","1","","",""
"","psychophysics","273","1070003","0.0-2.0-0.90","aea","[""R""]","","","","","","2124","key","z","z","16.671840236686204","912","513","1","1","0","1","1","true","",""
"","psychophysics","274","1071013","0.0-2.0-1.90","aea","[""R""]","","","","","","null","key","null","null","16.672766666665364","912","513","1","1","0","1","1","","",""
"","psychophysics","275","1072026","0.0-2.0-2.90-0.90","aea","[""R""]","","","","","","null","key","null","null","16.672355932203295","912","513","1","1","0","1","1","","",""
"","psychophysics","276","1074815","0.0-2.0-0.91","aea","[""R""]","","","","","","2084","key","z","z","16.671449101796306","912","513","1","0","1","1","1","true","",""
"","psychophysics","277","1075827","0.0-2.0-1.91","aea","[""R""]","","","","","","null","key","null","null","16.6727627118639","912","513","1","0","1","1","1","","",""
"","psychophysics","278","1076848","0.0-2.0-2.91-0.91","aea","[""R""]","","","","","","null","key","null","null","16.67114754098269","912","513","1","0","1","1","1","","",""
"","psychophysics","279","1080872","0.0-2.0-0.92","aea","[""R""]","","","","","","3316","key","m","m","16.671937238494184","912","513","1","1","1","0","1","false","",""
"","psychophysics","280","1081882","0.0-2.0-1.92","aea","[""R""]","","","","","","null","key","null","null","16.55445901639607","912","513","1","1","1","0","1","","",""
"","psychophysics","281","1082892","0.0-2.0-3.92-0.92","aea","[""R""]","","","","","","null","key","null","null","16.6718135593238","912","513","1","1","1","0","1","","",""
"","psychophysics","282","1084763","0.0-2.0-0.93","aea","[""R""]","","","","","","1167","key","m","m","16.67235135135182","912","513","2","1","0","1","1","true","",""
"","psychophysics","283","1085773","0.0-2.0-1.93","aea","[""R""]","","","","","","null","key","null","null","16.67305000000245","912","513","2","1","0","1","1","","",""
"","psychophysics","284","1086784","0.0-2.0-2.93-0.93","aea","[""R""]","","","","","","null","key","null","null","16.672849999996835","912","513","2","1","0","1","1","","",""
"","psychophysics","285","1088595","0.0-2.0-0.94","aea","[""R""]","","","","","","1102","key","z","z","16.672467289718792","912","513","1","1","1","1","1","true","",""
"","psychophysics","286","1089605","0.0-2.0-1.94","aea","[""R""]","","","","","","null","key","null","null","16.672266666664896","912","513","1","1","1","1","1","","",""
"","psychophysics","287","1090615","0.0-2.0-2.94-0.94","aea","[""R""]","","","","","","null","key","null","null","16.959206896553074","912","513","1","1","1","1","1","","",""
"","psychophysics","288","1092516","0.0-2.0-0.95","aea","[""R""]","","","","","","1196","key","z","z","16.671911504424582","912","513","1","1","1","1","1","true","",""
"","psychophysics","289","1093525","0.0-2.0-1.95","aea","[""R""]","","","","","","null","key","null","null","16.67196666666617","912","513","1","1","1","1","1","","",""
"","psychophysics","290","1094537","0.0-2.0-2.95-0.95","aea","[""R""]","","","","","","null","key","null","null","16.672666666668373","912","513","1","1","1","1","1","","",""
"","psychophysics","291","1099843","0.0-2.0-0.96","aea","[""R""]","","","","","","4598","key","z","z","16.671782334385092","912","513","1","0","1","0","1","true","",""
"","psychophysics","292","1100852","0.0-2.0-1.96","aea","[""R""]","","","","","","null","key","null","null","16.671949152542688","912","513","1","0","1","0","1","","",""
"","psychophysics","293","1101869","0.0-2.0-2.96-0.96","aea","[""R""]","","","","","","null","key","null","null","16.671799999999347","912","513","1","0","1","0","1","","",""
"","psychophysics","294","1104575","0.0-2.0-0.97","aea","[""R""]","","","","","","2001","key","z","z","16.671790123455814","912","513","2","0","1","0","0","false","",""
"","psychophysics","295","1105586","0.0-2.0-1.97","aea","[""R""]","","","","","","null","key","null","null","16.67140677965925","912","513","2","0","1","0","0","","",""
"","psychophysics","296","1106597","0.0-2.0-3.97-0.97","aea","[""R""]","","","","","","null","key","null","null","16.672666666668373","912","513","2","0","1","0","0","","",""
"","psychophysics","297","1110143","0.0-2.0-0.98","aea","[""R""]","","","","","","2842","key","m","m","16.671891509433372","912","513","1","0","0","0","1","false","",""
"","psychophysics","298","1111155","0.0-2.0-1.98","aea","[""R""]","","","","","","null","key","null","null","16.67220338982909","912","513","1","0","0","0","1","","",""
"","psychophysics","299","1112165","0.0-2.0-3.98-0.98","aea","[""R""]","","","","","","null","key","null","null","16.672599999998543","912","513","1","0","0","0","1","","",""
"","psychophysics","300","1115916","0.0-2.0-0.99","aea","[""R""]","","","","","","3044","key","m","m","16.672102678571328","912","513","1","0","0","0","1","false","",""
"","psychophysics","301","1116927","0.0-2.0-1.99","aea","[""R""]","","","","","","null","key","null","null","16.672500000001552","912","513","1","0","0","0","1","","",""
"","psychophysics","302","1117940","0.0-2.0-3.99-0.99","aea","[""R""]","","","","","","null","key","null","null","16.671813559319855","912","513","1","0","0","0","1","","",""
"","html-keyboard-response","303","1131372","0.0-2.0-4.99-0.99","aea","[""R""]","","","","","","13425","","","g","","","","","","","","","","<p>You have finished block 1 of 5.<p>You correctly predicted 62% of the races.<p>On the next screen, you will be given a 30 second break. Press the <b>g</b> key to start your break.",""
"","html-keyboard-response","304","1132390","0.0-2.0-4.99-1.99-0.99","aea","[""R""]","","","","","","null","","","null","","","","","","","","","","<p>The experiment will resume in 30 seconds. ",""
"","html-keyboard-response","305","1133397","0.0-2.0-4.99-1.99-1.99","aea","[""R""]","","","","","","null","","","null","","","","","","","","","","<p>The experiment will resume in 29 seconds. ",""
"","html-keyboard-response","306","1134405","0.0-2.0-4.99-1.99-2.99","aea","[""R""]","","","","","","null","","","null","","","","","","","","","","<p>The experiment will resume in 28 seconds. ",""
"","html-keyboard-response","307","1135422","0.0-2.0-4.99-1.99-3.99","aea","[""R""]","","","","","","null","","","null","","","","","","","","","","<p>The experiment will resume in 27 seconds. ",""
"","html-keyboard-response","308","1136429","0.0-2.0-4.99-1.99-4.99","aea","[""R""]","","","","","","null","","","null","","","","","","","","","","<p>The experiment will resume in 26 seconds. ",""
"","html-keyboard-response","309","1137452","0.0-2.0-4.99-1.99-5.99","aea","[""R""]","","","","","","null","","","null","","","","","","","","","","<p>The experiment will resume in 25 seconds. ",""
"","html-keyboard-response","310","1138467","0.0-2.0-4.99-1.99-6.99","aea","[""R""]","","","","","","null","","","null","","","","","","","","","","<p>The experiment will resume in 24 seconds. ",""
"","html-keyboard-response","311","1139484","0.0-2.0-4.99-1.99-7.99","aea","[""R""]","","","","","","null","","","null","","","","","","","","","","<p>The experiment will resume in 23 seconds. ",""
"","html-keyboard-response","312","1140495","0.0-2.0-4.99-1.99-8.99","aea","[""R""]","","","","","","null","","","null","","","","","","","","","","<p>The experiment will resume in 22 seconds. ",""
"","html-keyboard-response","313","1141512","0.0-2.0-4.99-1.99-9.99","aea","[""R""]","","","","","","null","","","null","","","","","","","","","","<p>The experiment will resume in 21 seconds. ",""
"","html-keyboard-response","314","1142530","0.0-2.0-4.99-1.99-10.99","aea","[""R""]","","","","","","null","","","null","","","","","","","","","","<p>The experiment will resume in 20 seconds. ",""
"","html-keyboard-response","315","1143536","0.0-2.0-4.99-1.99-11.99","aea","[""R""]","","","","","","null","","","null","","","","","","","","","","<p>The experiment will resume in 19 seconds. ",""
"","html-keyboard-response","316","1144546","0.0-2.0-4.99-1.99-12.99","aea","[""R""]","","","","","","null","","","null","","","","","","","","","","<p>The experiment will resume in 18 seconds. ",""
"","html-keyboard-response","317","1145562","0.0-2.0-4.99-1.99-13.99","aea","[""R""]","","","","","","null","","","null","","","","","","","","","","<p>The experiment will resume in 17 seconds. ",""
"","html-keyboard-response","318","1146566","0.0-2.0-4.99-1.99-14.99","aea","[""R""]","","","","","","null","","","null","","","","","","","","","","<p>The experiment will resume in 16 seconds. ",""
"","html-keyboard-response","319","1147577","0.0-2.0-4.99-1.99-15.99","aea","[""R""]","","","","","","null","","","null","","","","","","","","","","<p>The experiment will resume in 15 seconds. ",""
"","html-keyboard-response","320","1148589","0.0-2.0-4.99-1.99-16.99","aea","[""R""]","","","","","","null","","","null","","","","","","","","","","<p>The experiment will resume in 14 seconds. ",""
"","html-keyboard-response","321","1149609","0.0-2.0-4.99-1.99-17.99","aea","[""R""]","","","","","","null","","","null","","","","","","","","","","<p>The experiment will resume in 13 seconds. ",""
"","html-keyboard-response","322","1150628","0.0-2.0-4.99-1.99-18.99","aea","[""R""]","","","","","","null","","","null","","","","","","","","","","<p>The experiment will resume in 12 seconds. ",""
"","html-keyboard-response","323","1151643","0.0-2.0-4.99-1.99-19.99","aea","[""R""]","","","","","","null","","","null","","","","","","","","","","<p>The experiment will resume in 11 seconds. ",""
"","html-keyboard-response","324","1152645","0.0-2.0-4.99-1.99-20.99","aea","[""R""]","","","","","","null","","","null","","","","","","","","","","<p>The experiment will resume in 10 seconds. ",""
"","html-keyboard-response","325","1153667","0.0-2.0-4.99-1.99-21.99","aea","[""R""]","","","","","","null","","","null","","","","","","","","","","<p>The experiment will resume in 9 seconds. ",""
"","html-keyboard-response","326","1154682","0.0-2.0-4.99-1.99-22.99","aea","[""R""]","","","","","","null","","","null","","","","","","","","","","<p>The experiment will resume in 8 seconds. ",""
"","html-keyboard-response","327","1155697","0.0-2.0-4.99-1.99-23.99","aea","[""R""]","","","","","","null","","","null","","","","","","","","","","<p>The experiment will resume in 7 seconds. ",""
"","html-keyboard-response","328","1156713","0.0-2.0-4.99-1.99-24.99","aea","[""R""]","","","","","","null","","","null","","","","","","","","","","<p>The experiment will resume in 6 seconds. ",""
"","html-keyboard-response","329","1157721","0.0-2.0-4.99-1.99-25.99","aea","[""R""]","","","","","","null","","","null","","","","","","","","","","<p>The experiment will resume in 5 seconds. ",""
"","html-keyboard-response","330","1158727","0.0-2.0-4.99-1.99-26.99","aea","[""R""]","","","","","","null","","","null","","","","","","","","","","<p>The experiment will resume in 4 seconds. ",""
"","html-keyboard-response","331","1159747","0.0-2.0-4.99-1.99-27.99","aea","[""R""]","","","","","","null","","","null","","","","","","","","","","<p>The experiment will resume in 3 seconds. ",""
"","html-keyboard-response","332","1160763","0.0-2.0-4.99-1.99-28.99","aea","[""R""]","","","","","","null","","","null","","","","","","","","","","<p>The experiment will resume in 2 seconds. ",""
"","html-keyboard-response","333","1161770","0.0-2.0-4.99-1.99-29.99","aea","[""R""]","","","","","","null","","","null","","","","","","","","","","<p>The experiment will resume in 1 seconds. ",""
"","psychophysics","334","1168460","0.0-2.0-0.100","aea","[""R""]","","","","","","5985","key","z","z","16.67268827930209","912","513","1","0","0","1","1","true","",""
"","psychophysics","335","1169470","0.0-2.0-1.100","aea","[""R""]","","","","","","null","key","null","null","16.67167796610097","912","513","1","0","0","1","1","","",""
"","psychophysics","336","1170484","0.0-2.0-2.100-0.100","aea","[""R""]","","","","","","null","key","null","null","16.67278333333476","912","513","1","0","0","1","1","","",""
"","psychophysics","337","1172787","0.0-2.0-0.101","aea","[""R""]","","","","","","1597","key","z","z","16.672277372262446","912","513","1","1","1","1","1","true","",""
"","psychophysics","338","1173795","0.0-2.0-1.101","aea","[""R""]","","","","","","null","key","null","null","16.672533333332588","912","513","1","1","1","1","1","","",""
"","psychophysics","339","1174808","0.0-2.0-2.101-0.101","aea","[""R""]","","","","","","null","key","null","null","16.671152542372848","912","513","1","1","1","1","1","","",""
"","psychophysics","340","1177299","0.0-2.0-0.102","aea","[""R""]","","","","","","1782","key","m","m","16.6718523489927","912","513","1","1","0","0","0","false","",""
"","psychophysics","341","1178309","0.0-2.0-1.102","aea","[""R""]","","","","","","null","key","null","null","16.671118644070102","912","513","1","1","0","0","0","","",""
"","psychophysics","342","1179325","0.0-2.0-3.102-0.102","aea","[""R""]","","","","","","null","key","null","null","16.671799999999347","912","513","1","1","0","0","0","","",""
"","psychophysics","343","1183371","0.0-2.0-0.103","aea","[""R""]","","","","","","3341","key","z","z","16.67203719008229","912","513","2","0","0","0","0","false","",""
"","psychophysics","344","1184382","0.0-2.0-1.103","aea","[""R""]","","","","","","null","key","null","null","16.672733333330445","912","513","2","0","0","0","0","","",""
"","psychophysics","345","1185395","0.0-2.0-3.103-0.103","aea","[""R""]","","","","","","null","key","null","null","16.671423728810623","912","513","2","0","0","0","0","","",""
"","psychophysics","346","1190227","0.0-2.0-0.104","aea","[""R""]","","","","","","4128","key","z","z","16.671761245674624","912","513","2","0","0","1","0","false","",""
"","psychophysics","347","1191244","0.0-2.0-1.104","aea","[""R""]","","","","","","null","key","null","null","16.67298333333262","912","513","2","0","0","1","0","","",""
"","psychophysics","348","1192256","0.0-2.0-3.104-0.104","aea","[""R""]","","","","","","null","key","null","null","16.671849999999782","912","513","2","0","0","1","0","","",""
"","psychophysics","349","1194643","0.0-2.0-0.105","aea","[""R""]","","","","","","1680","key","z","z","16.671788732394983","912","513","2","0","0","0","0","false","",""
"","psychophysics","350","1195651","0.0-2.0-1.105","aea","[""R""]","","","","","","null","key","null","null","16.67206666666704","912","513","2","0","0","0","0","","",""
"","psychophysics","351","1196664","0.0-2.0-3.105-0.105","aea","[""R""]","","","","","","null","key","null","null","16.672796610170597","912","513","2","0","0","0","0","","",""
"","psychophysics","352","1200939","0.0-2.0-0.106","aea","[""R""]","","","","","","3569","key","m","m","16.67205859375008","912","513","2","0","1","1","1","true","",""
"","psychophysics","353","1201950","0.0-2.0-1.106","aea","[""R""]","","","","","","null","key","null","null","16.672220338980463","912","513","2","0","1","1","1","","",""
"","psychophysics","354","1202967","0.0-2.0-2.106-0.106","aea","[""R""]","","","","","","null","key","null","null","16.671149999997578","912","513","2","0","1","1","1","","",""
"","psychophysics","355","1206123","0.0-2.0-0.107","aea","[""R""]","","","","","","2452","key","z","z","16.672089947090686","912","513","2","0","0","0","0","false","",""
"","psychophysics","356","1207134","0.0-2.0-1.107","aea","[""R""]","","","","","","null","key","null","null","16.672288135593853","912","513","2","0","0","0","0","","",""
"","psychophysics","357","1208149","0.0-2.0-3.107-0.107","aea","[""R""]","","","","","","null","key","null","null","16.67269999999941","912","513","2","0","0","0","0","","",""
"","psychophysics","358","1211725","0.0-2.0-0.108","aea","[""R""]","","","","","","2868","key","z","z","16.67200467289669","912","513","1","0","0","1","1","true","",""
"","psychophysics","359","1212737","0.0-2.0-1.108","aea","[""R""]","","","","","","null","key","null","null","16.672627118641067","912","513","1","0","0","1","1","","",""
"","psychophysics","360","1213752","0.0-2.0-2.108-0.108","aea","[""R""]","","","","","","null","key","null","null","16.672183333333425","912","513","1","0","0","1","1","","",""
"","psychophysics","361","1217043","0.0-2.0-0.109","aea","[""R""]","","","","","","2585","key","z","z","16.672218274111213","912","513","1","0","0","0","0","true","",""
"","psychophysics","362","1218053","0.0-2.0-1.109","aea","[""R""]","","","","","","null","key","null","null","16.671406779663194","912","513","1","0","0","0","0","","",""
"","psychophysics","363","1219072","0.0-2.0-2.109-0.109","aea","[""R""]","","","","","","null","key","null","null","16.6728166666658","912","513","1","0","0","0","0","","",""
"","psychophysics","364","1221878","0.0-2.0-0.110","aea","[""R""]","","","","","","2102","key","m","m","16.671875","912","513","2","1","0","1","0","true","",""
"","psychophysics","365","1222885","0.0-2.0-1.110","aea","[""R""]","","","","","","null","key","null","null","16.671881355929298","912","513","2","1","0","1","0","","",""
"","psychophysics","366","1223894","0.0-2.0-2.110-0.110","aea","[""R""]","","","","","","null","key","null","null","16.673483333333085","912","513","2","1","0","1","0","","",""
"","psychophysics","367","1227099","0.0-2.0-0.111","aea","[""R""]","","","","","","2494","key","m","m","16.67174345549776","912","513","2","0","1","1","1","true","",""
"","psychophysics","368","1228108","0.0-2.0-1.111","aea","[""R""]","","","","","","null","key","null","null","16.67142372881457","912","513","2","0","1","1","1","","",""
"","psychophysics","369","1229117","0.0-2.0-2.111-0.111","aea","[""R""]","","","","","","null","key","null","null","16.67251666666707","912","513","2","0","1","1","1","","",""
"","psychophysics","370","1231555","0.0-2.0-0.112","aea","[""R""]","","","","","","1733","key","m","m","16.672103448274772","912","513","2","0","0","0","0","true","",""
"","psychophysics","371","1232563","0.0-2.0-1.112","aea","[""R""]","","","","","","null","key","null","null","16.672950000001585","912","513","2","0","0","0","0","","",""
"","psychophysics","372","1233575","0.0-2.0-2.112-0.112","aea","[""R""]","","","","","","null","key","null","null","16.672000000000757","912","513","2","0","0","0","0","","",""
"","psychophysics","373","1236015","0.0-2.0-0.113","aea","[""R""]","","","","","","1734","key","z","z","16.671883561643643","912","513","1","0","1","1","1","true","",""
"","psychophysics","374","1237028","0.0-2.0-1.113","aea","[""R""]","","","","","","null","key","null","null","16.672288135593853","912","513","1","0","1","1","1","","",""
"","psychophysics","375","1238043","0.0-2.0-2.113-0.113","aea","[""R""]","","","","","","null","key","null","null","16.671983333335568","912","513","1","0","1","1","1","","",""
"","psychophysics","376","1241235","0.0-2.0-0.114","aea","[""R""]","","","","","","2486","key","z","z","16.672047120419023","912","513","2","0","0","1","0","false","",""
"","psychophysics","377","1242246","0.0-2.0-1.114","aea","[""R""]","","","","","","null","key","null","null","16.671288135591738","912","513","2","0","0","1","0","","",""
"","psychophysics","378","1243263","0.0-2.0-3.114-0.114","aea","[""R""]","","","","","","null","key","null","null","16.67178333333383","912","513","2","0","0","1","0","","",""
"","psychophysics","379","1247611","0.0-2.0-0.115","aea","[""R""]","","","","","","3644","key","m","m","16.671769230769804","912","513","1","0","0","1","0","false","",""
"","psychophysics","380","1248619","0.0-2.0-1.115","aea","[""R""]","","","","","","null","key","null","null","16.672733333330445","912","513","1","0","0","1","0","","",""
"","psychophysics","381","1249630","0.0-2.0-3.115-0.115","aea","[""R""]","","","","","","null","key","null","null","16.67364406779456","912","513","1","0","0","1","0","","",""
"","psychophysics","382","1252287","0.0-2.0-0.116","aea","[""R""]","","","","","","1951","key","z","z","16.671710691823325","912","513","2","1","1","0","0","false","",""
"","psychophysics","383","1253299","0.0-2.0-1.116","aea","[""R""]","","","","","","null","key","null","null","16.672694915254457","912","513","2","1","1","0","0","","",""
"","psychophysics","384","1254315","0.0-2.0-3.116-0.116","aea","[""R""]","","","","","","null","key","null","null","16.672733333334328","912","513","2","1","1","0","0","","",""
"","psychophysics","385","1259250","0.0-2.0-0.117","aea","[""R""]","","","","","","4230","key","m","m","16.671728813559827","912","513","1","0","1","1","0","false","",""
"","psychophysics","386","1260255","0.0-2.0-1.117","aea","[""R""]","","","","","","null","key","null","null","16.67335000000118","912","513","1","0","1","1","0","","",""
"","psychophysics","387","1261268","0.0-2.0-3.117-0.117","aea","[""R""]","","","","","","null","key","null","null","16.673237288137898","912","513","1","0","1","1","0","","",""
"","psychophysics","388","1263979","0.0-2.0-0.118","aea","[""R""]","","","","","","2007","key","z","z","16.67190740740697","912","513","1","1","1","1","1","true","",""
"","psychophysics","389","1265000","0.0-2.0-1.118","aea","[""R""]","","","","","","null","key","null","null","16.673016666667536","912","513","1","1","1","1","1","","",""
"","psychophysics","390","1266016","0.0-2.0-2.118-0.118","aea","[""R""]","","","","","","null","key","null","null","16.672933333332185","912","513","1","1","1","1","1","","",""
"","psychophysics","391","1268426","0.0-2.0-0.119","aea","[""R""]","","","","","","1707","key","z","z","16.67217361111155","912","513","1","0","0","1","0","true","",""
"","psychophysics","392","1269437","0.0-2.0-1.119","aea","[""R""]","","","","","","null","key","null","null","16.67201694915213","912","513","1","0","0","1","0","","",""
"","psychophysics","393","1270454","0.0-2.0-2.119-0.119","aea","[""R""]","","","","","","null","key","null","null","16.67188333333082","912","513","1","0","0","1","0","","",""
"","psychophysics","394","1273694","0.0-2.0-0.120","aea","[""R""]","","","","","","2535","key","z","z","16.671757731958742","912","513","1","0","0","0","0","true","",""
"","psychophysics","395","1274701","0.0-2.0-1.120","aea","[""R""]","","","","","","null","key","null","null","16.671491525424013","912","513","1","0","0","0","0","","",""
"","psychophysics","396","1275717","0.0-2.0-2.120-0.120","aea","[""R""]","","","","","","null","key","null","null","16.672749999999844","912","513","1","0","0","0","0","","",""
"","psychophysics","397","1278499","0.0-2.0-0.121","aea","[""R""]","","","","","","2078","key","m","m","16.6721566265059","912","513","2","1","1","1","1","true","",""
"","psychophysics","398","1279507","0.0-2.0-1.121","aea","[""R""]","","","","","","null","key","null","null","16.67191525423994","912","513","2","1","1","1","1","","",""
"","psychophysics","399","1280517","0.0-2.0-2.121-0.121","aea","[""R""]","","","","","","null","key","null","null","16.671916666665734","912","513","2","1","1","1","1","","",""
"","psychophysics","400","1282859","0.0-2.0-0.122","aea","[""R""]","","","","","","1622","key","z","z","16.67228057554072","912","513","2","1","0","0","1","false","",""
"","psychophysics","401","1283869","0.0-2.0-1.122","aea","[""R""]","","","","","","null","key","null","null","16.67206666666704","912","513","2","1","0","0","1","","",""
"","psychophysics","402","1284879","0.0-2.0-3.122-0.122","aea","[""R""]","","","","","","null","key","null","null","16.672299999999815","912","513","2","1","0","0","1","","",""
"","psychophysics","403","1287858","0.0-2.0-0.123","aea","[""R""]","","","","","","2270","key","m","m","16.672000000000757","912","513","1","0","0","1","1","false","",""
"","psychophysics","404","1288869","0.0-2.0-1.123","aea","[""R""]","","","","","","null","key","null","null","16.672766666665364","912","513","1","0","0","1","1","","",""
"","psychophysics","405","1289877","0.0-2.0-3.123-0.123","aea","[""R""]","","","","","","null","key","null","null","16.672728813557207","912","513","1","0","0","1","1","","",""
"","psychophysics","406","1292466","0.0-2.0-0.124","aea","[""R""]","","","","","","1886","key","m","m","16.6718516129039","912","513","2","1","0","1","1","true","",""
"","psychophysics","407","1293478","0.0-2.0-1.124","aea","[""R""]","","","","","","null","key","null","null","16.671762711861785","912","513","2","1","0","1","1","","",""
"","psychophysics","408","1294498","0.0-2.0-2.124-0.124","aea","[""R""]","","","","","","null","key","null","null","16.671983606556093","912","513","2","1","0","1","1","","",""
"","psychophysics","409","1296517","0.0-2.0-0.125","aea","[""R""]","","","","","","1312","key","m","m","16.671849999999782","912","513","2","0","0","0","0","true","",""
"","psychophysics","410","1297524","0.0-2.0-1.125","aea","[""R""]","","","","","","null","key","null","null","16.671644067794276","912","513","2","0","0","0","0","","",""
"","psychophysics","411","1298540","0.0-2.0-2.125-0.125","aea","[""R""]","","","","","","null","key","null","null","16.67280000000028","912","513","2","0","0","0","0","","",""
"","psychophysics","412","1301090","0.0-2.0-0.126","aea","[""R""]","","","","","","1846","key","m","m","16.67213815789498","912","513","2","0","1","1","1","true","",""
"","psychophysics","413","1302097","0.0-2.0-1.126","aea","[""R""]","","","","","","null","key","null","null","16.672694915254457","912","513","2","0","1","1","1","","",""
"","psychophysics","414","1303109","0.0-2.0-2.126-0.126","aea","[""R""]","","","","","","null","key","null","null","16.671749999998912","912","513","2","0","1","1","1","","",""
"","psychophysics","415","1307270","0.0-2.0-0.127","aea","[""R""]","","","","","","3457","key","m","m","16.671887550200054","912","513","2","0","0","1","0","true","",""
"","psychophysics","416","1308277","0.0-2.0-1.127","aea","[""R""]","","","","","","null","key","null","null","16.672305084745226","912","513","2","0","0","1","0","","",""
"","psychophysics","417","1309286","0.0-2.0-2.127-0.127","aea","[""R""]","","","","","","null","key","null","null","16.672133333336873","912","513","2","0","0","1","0","","",""
"","psychophysics","418","1311938","0.0-2.0-0.128","aea","[""R""]","","","","","","1941","key","z","z","16.672006329113348","912","513","1","0","1","1","1","true","",""
"","psychophysics","419","1312950","0.0-2.0-1.128","aea","[""R""]","","","","","","null","key","null","null","16.671711864407662","912","513","1","0","1","1","1","","",""
"","psychophysics","420","1313965","0.0-2.0-2.128-0.128","aea","[""R""]","","","","","","null","key","null","null","16.671850000003662","912","513","1","0","1","1","1","","",""
"","psychophysics","421","1316556","0.0-2.0-0.129","aea","[""R""]","","","","","","1884","key","z","z","16.672187096774277","912","513","1","0","0","1","0","true","",""
"","psychophysics","422","1317565","0.0-2.0-1.129","aea","[""R""]","","","","","","null","key","null","null","16.67189830508462","912","513","1","0","0","1","0","","",""
"","psychophysics","423","1318581","0.0-2.0-2.129-0.129","aea","[""R""]","","","","","","null","key","null","null","16.672633333333458","912","513","1","0","0","1","0","","",""
"","psychophysics","424","1321146","0.0-2.0-0.130","aea","[""R""]","","","","","","1861","key","m","m","16.672176470588955","912","513","2","0","1","1","1","true","",""
"","psychophysics","425","1322153","0.0-2.0-1.130","aea","[""R""]","","","","","","null","key","null","null","16.67288135593536","912","513","2","0","1","1","1","","",""
"","psychophysics","426","1323164","0.0-2.0-2.130-0.130","aea","[""R""]","","","","","","null","key","null","null","16.671866666665302","912","513","2","0","1","1","1","","",""
"","psychophysics","427","1327546","0.0-2.0-0.131","aea","[""R""]","","","","","","3677","key","z","z","16.671973282442863","912","513","2","0","0","1","1","false","",""
"","psychophysics","428","1328559","0.0-2.0-1.131","aea","[""R""]","","","","","","null","key","null","null","16.67174576271041","912","513","2","0","0","1","1","","",""
"","psychophysics","429","1329572","0.0-2.0-3.131-0.131","aea","[""R""]","","","","","","null","key","null","null","16.62646666666648","912","513","2","0","0","1","1","","",""
"","psychophysics","430","1332314","0.0-2.0-0.132","aea","[""R""]","","","","","","2038","key","m","m","16.671542682926308","912","513","2","0","0","1","0","true","",""
"","psychophysics","431","1333323","0.0-2.0-1.132","aea","[""R""]","","","","","","null","key","null","null","16.67244067796806","912","513","2","0","0","1","0","","",""
"","psychophysics","432","1334332","0.0-2.0-2.132-0.132","aea","[""R""]","","","","","","null","key","null","null","16.671150000001457","912","513","2","0","0","1","0","","",""
"","psychophysics","433","1337490","0.0-2.0-0.133","aea","[""R""]","","","","","","2453","key","z","z","16.672138297872152","912","513","1","0","1","0","1","true","",""
"","psychophysics","434","1338501","0.0-2.0-1.133","aea","[""R""]","","","","","","null","key","null","null","16.671450000000185","912","513","1","0","1","0","1","","",""
"","psychophysics","435","1339509","0.0-2.0-2.133-0.133","aea","[""R""]","","","","","","null","key","null","null","16.671983050845437","912","513","1","0","1","0","1","","",""
"","psychophysics","436","1343138","0.0-2.0-0.134","aea","[""R""]","","","","","","2925","key","z","z","16.671801843317784","912","513","1","0","0","1","0","true","",""
"","psychophysics","437","1344147","0.0-2.0-1.134","aea","[""R""]","","","","","","null","key","null","null","16.67305000000245","912","513","1","0","0","1","0","","",""
"","psychophysics","438","1345157","0.0-2.0-2.134-0.134","aea","[""R""]","","","","","","null","key","null","null","16.671559322033456","912","513","1","0","0","1","0","","",""
"","psychophysics","439","1351874","0.0-2.0-0.135","aea","[""R""]","","","","","","6014","key","m","m","16.6718855721393","912","513","2","0","0","1","1","true","",""
"","psychophysics","440","1352883","0.0-2.0-1.135","aea","[""R""]","","","","","","null","key","null","null","16.673183333334357","912","513","2","0","0","1","1","","",""
"","psychophysics","441","1353893","0.0-2.0-2.135-0.135","aea","[""R""]","","","","","","null","key","null","null","16.67167796610097","912","513","2","0","0","1","1","","",""
"","psychophysics","442","1356210","0.0-2.0-0.136","aea","[""R""]","","","","","","1614","key","m","m","16.672217391304795","912","513","2","0","1","0","1","true","",""
"","psychophysics","443","1357217","0.0-2.0-1.136","aea","[""R""]","","","","","","null","key","null","null","16.672583333333023","912","513","2","0","1","0","1","","",""
"","psychophysics","444","1358234","0.0-2.0-2.136-0.136","aea","[""R""]","","","","","","null","key","null","null","16.67278333333476","912","513","2","0","1","0","1","","",""
"","psychophysics","445","1362138","0.0-2.0-0.137","aea","[""R""]","","","","","","3196","key","z","z","16.67196566523692","912","513","1","1","1","0","1","true","",""
"","psychophysics","446","1363149","0.0-2.0-1.137","aea","[""R""]","","","","","","null","key","null","null","16.671694915252342","912","513","1","1","1","0","1","","",""
"","psychophysics","447","1364164","0.0-2.0-2.137-0.137","aea","[""R""]","","","","","","null","key","null","null","16.671799999999347","912","513","1","1","1","0","1","","",""
"","psychophysics","448","1367290","0.0-2.0-0.138","aea","[""R""]","","","","","","2420","key","z","z","16.672117647058755","912","513","1","0","1","1","1","true","",""
"","psychophysics","449","1368301","0.0-2.0-1.138","aea","[""R""]","","","","","","null","key","null","null","16.670745762712244","912","513","1","0","1","1","1","","",""
"","psychophysics","450","1369318","0.0-2.0-2.138-0.138","aea","[""R""]","","","","","","null","key","null","null","16.672583333333023","912","513","1","0","1","1","1","","",""
"","psychophysics","451","1371234","0.0-2.0-0.139","aea","[""R""]","","","","","","1212","key","z","z","16.671763157894787","912","513","1","0","1","1","1","true","",""
"","psychophysics","452","1372245","0.0-2.0-1.139","aea","[""R""]","","","","","","null","key","null","null","16.67278333333088","912","513","1","0","1","1","1","","",""
"","psychophysics","453","1373256","0.0-2.0-2.139-0.139","aea","[""R""]","","","","","","null","key","null","null","16.67271666666493","912","513","1","0","1","1","1","","",""
"","psychophysics","454","1376826","0.0-2.0-0.140","aea","[""R""]","","","","","","2861","key","m","m","16.671807511736958","912","513","2","1","1","1","1","true","",""
"","psychophysics","455","1377837","0.0-2.0-1.140","aea","[""R""]","","","","","","null","key","null","null","16.671593220340153","912","513","2","1","1","1","1","","",""
"","psychophysics","456","1378852","0.0-2.0-2.140-0.140","aea","[""R""]","","","","","","null","key","null","null","16.671799999999347","912","513","2","1","1","1","1","","",""
"","psychophysics","457","1381002","0.0-2.0-0.141","aea","[""R""]","","","","","","1444","key","z","z","16.6722343750007","912","513","1","1","1","1","1","true","",""
"","psychophysics","458","1382013","0.0-2.0-1.141","aea","[""R""]","","","","","","null","key","null","null","16.67231666666921","912","513","1","1","1","1","1","","",""
"","psychophysics","459","1383022","0.0-2.0-2.141-0.141","aea","[""R""]","","","","","","null","key","null","null","16.672271186442476","912","513","1","1","1","1","1","","",""
"","psychophysics","460","1385450","0.0-2.0-0.142","aea","[""R""]","","","","","","1724","key","z","z","16.671682758621294","912","513","1","1","1","1","1","true","",""
"","psychophysics","461","1386460","0.0-2.0-1.142","aea","[""R""]","","","","","","null","key","null","null","16.672850000000714","912","513","1","1","1","1","1","","",""
"","psychophysics","462","1387469","0.0-2.0-2.142-0.142","aea","[""R""]","","","","","","null","key","null","null","16.671152542372848","912","513","1","1","1","1","1","","",""
"","psychophysics","463","1391114","0.0-2.0-0.143","aea","[""R""]","","","","","","2940","key","m","m","16.672151376147234","912","513","2","0","1","1","1","true","",""
"","psychophysics","464","1392125","0.0-2.0-1.143","aea","[""R""]","","","","","","null","key","null","null","16.67264406779639","912","513","2","0","1","1","1","","",""
"","psychophysics","465","1393142","0.0-2.0-2.143-0.143","aea","[""R""]","","","","","","null","key","null","null","16.671950000000653","912","513","2","0","1","1","1","","",""
"","psychophysics","466","1396364","0.0-2.0-0.144","aea","[""R""]","","","","","","2519","key","z","z","16.67182383419695","912","513","1","1","0","1","0","true","",""
"","psychophysics","467","1397373","0.0-2.0-1.144","aea","[""R""]","","","","","","null","key","null","null","16.671338983049807","912","513","1","1","0","1","0","","",""
"","psychophysics","468","1398388","0.0-2.0-2.144-0.144","aea","[""R""]","","","","","","null","key","null","null","16.672850000000714","912","513","1","1","0","1","0","","",""
"","psychophysics","469","1400618","0.0-2.0-0.145","aea","[""R""]","","","","","","1525","key","m","m","16.92680152671817","912","513","2","1","1","1","1","true","",""
"","psychophysics","470","1401628","0.0-2.0-1.145","aea","[""R""]","","","","","","null","key","null","null","16.95925862068744","912","513","2","1","1","1","1","","",""
"","psychophysics","471","1402637","0.0-2.0-2.145-0.145","aea","[""R""]","","","","","","null","key","null","null","16.672033333332124","912","513","2","1","1","1","1","","",""
"","psychophysics","472","1405434","0.0-2.0-0.146","aea","[""R""]","","","","","","2093","key","m","m","16.6721796407197","912","513","2","0","1","1","1","true","",""
"","psychophysics","473","1406446","0.0-2.0-1.146","aea","[""R""]","","","","","","null","key","null","null","16.671593220340153","912","513","2","0","1","1","1","","",""
"","psychophysics","474","1407461","0.0-2.0-2.146-0.146","aea","[""R""]","","","","","","null","key","null","null","16.67188333333082","912","513","2","0","1","1","1","","",""
"","psychophysics","475","1410642","0.0-2.0-0.147","aea","[""R""]","","","","","","2474","key","m","m","16.67211578947394","912","513","1","0","0","1","1","false","",""
"","psychophysics","476","1411650","0.0-2.0-1.147","aea","[""R""]","","","","","","null","key","null","null","16.67278333333476","912","513","1","0","0","1","1","","",""
"","psychophysics","477","1412660","0.0-2.0-3.147-0.147","aea","[""R""]","","","","","","null","key","null","null","16.6727627118639","912","513","1","0","0","1","1","","",""
"","psychophysics","478","1415361","0.0-2.0-0.148","aea","[""R""]","","","","","","1997","key","m","m","16.67210559006231","912","513","2","1","1","1","1","true","",""
"","psychophysics","479","1416369","0.0-2.0-1.148","aea","[""R""]","","","","","","null","key","null","null","16.672950000001585","912","513","2","1","1","1","1","","",""
"","psychophysics","480","1417381","0.0-2.0-2.148-0.148","aea","[""R""]","","","","","","null","key","null","null","16.67142372881457","912","513","2","1","1","1","1","","",""
"","psychophysics","481","1419849","0.0-2.0-0.149","aea","[""R""]","","","","","","1762","key","z","z","16.672260273971965","912","513","2","1","1","1","0","false","",""
"","psychophysics","482","1420854","0.0-2.0-1.149","aea","[""R""]","","","","","","null","key","null","null","16.505196721312117","912","513","2","1","1","1","0","","",""
"","psychophysics","483","1421867","0.0-2.0-3.149-0.149","aea","[""R""]","","","","","","null","key","null","null","16.671694915252342","912","513","2","1","1","1","0","","",""
"","psychophysics","484","1426173","0.0-2.0-0.150","aea","[""R""]","","","","","","3602","key","m","m","16.6717093023264","912","513","2","0","0","1","0","true","",""
"","psychophysics","485","1427180","0.0-2.0-1.150","aea","[""R""]","","","","","","null","key","null","null","16.671661016949596","912","513","2","0","0","1","0","","",""
"","psychophysics","486","1428189","0.0-2.0-2.150-0.150","aea","[""R""]","","","","","","null","key","null","null","16.67261666666794","912","513","2","0","0","1","0","","",""
"","psychophysics","487","1430507","0.0-2.0-0.151","aea","[""R""]","","","","","","1607","key","z","z","16.671536231884208","912","513","2","0","0","0","1","false","",""
"","psychophysics","488","1431517","0.0-2.0-1.151","aea","[""R""]","","","","","","null","key","null","null","16.674694915250797","912","513","2","0","0","0","1","","",""
"","psychophysics","489","1432532","0.0-2.0-3.151-0.151","aea","[""R""]","","","","","","null","key","null","null","16.672833333331315","912","513","2","0","0","0","1","","",""
"","psychophysics","490","1434753","0.0-2.0-0.152","aea","[""R""]","","","","","","1516","key","z","z","16.672318181818508","912","513","2","0","1","1","0","false","",""
"","psychophysics","491","1435765","0.0-2.0-1.152","aea","[""R""]","","","","","","null","key","null","null","16.672833333331315","912","513","2","0","1","1","0","","",""
"","psychophysics","492","1436775","0.0-2.0-3.152-0.152","aea","[""R""]","","","","","","null","key","null","null","16.673016666667536","912","513","2","0","1","1","0","","",""
"","psychophysics","493","1439561","0.0-2.0-0.153","aea","[""R""]","","","","","","2076","key","m","m","16.67140963855368","912","513","1","1","0","0","1","false","",""
"","psychophysics","494","1440573","0.0-2.0-1.153","aea","[""R""]","","","","","","null","key","null","null","16.673186440679828","912","513","1","1","0","0","1","","",""
"","psychophysics","495","1441588","0.0-2.0-3.153-0.153","aea","[""R""]","","","","","","null","key","null","null","16.671900000000218","912","513","1","1","0","0","1","","",""
"","psychophysics","496","1442450","0.0-2.0-0.154","aea","[""R""]","","","","","","156","key","z","z","16.672980392155438","912","513","1","1","0","1","1","true","",""
"","psychophysics","497","1443457","0.0-2.0-1.154","aea","[""R""]","","","","","","null","key","null","null","16.673050847456995","912","513","1","1","0","1","1","","",""
"","psychophysics","498","1444468","0.0-2.0-2.154-0.154","aea","[""R""]","","","","","","null","key","null","null","16.671916666665734","912","513","1","1","0","1","1","","",""
"","psychophysics","499","1446817","0.0-2.0-0.155","aea","[""R""]","","","","","","1645","key","m","m","16.6722642857149","912","513","2","1","1","1","1","true","",""
"","psychophysics","500","1447825","0.0-2.0-1.155","aea","[""R""]","","","","","","null","key","null","null","16.671915254235994","912","513","2","1","1","1","1","","",""
"","psychophysics","501","1448836","0.0-2.0-2.155-0.155","aea","[""R""]","","","","","","null","key","null","null","16.67208333333256","912","513","2","1","1","1","1","","",""
"","psychophysics","502","1450794","0.0-2.0-0.156","aea","[""R""]","","","","","","1254","key","m","m","16.6724482758617","912","513","1","0","1","1","0","false","",""
"","psychophysics","503","1451805","0.0-2.0-1.156","aea","[""R""]","","","","","","null","key","null","null","16.671733333333396","912","513","1","0","1","1","0","","",""
"","psychophysics","504","1452814","0.0-2.0-3.156-0.156","aea","[""R""]","","","","","","null","key","null","null","16.673333333335663","912","513","1","0","1","1","0","","",""
"","psychophysics","505","1456754","0.0-2.0-0.157","aea","[""R""]","","","","","","3229","key","m","m","16.671753191489213","912","513","2","0","1","1","1","true","",""
"","psychophysics","506","1457762","0.0-2.0-1.157","aea","[""R""]","","","","","","null","key","null","null","16.671661016949596","912","513","2","0","1","1","1","","",""
"","psychophysics","507","1458772","0.0-2.0-2.157-0.157","aea","[""R""]","","","","","","null","key","null","null","16.67176666666831","912","513","2","0","1","1","1","","",""
"","psychophysics","508","1468146","0.0-2.0-0.158","aea","[""R""]","","","","","","8669","key","z","z","16.671909090909285","912","513","2","1","1","1","0","false","",""
"","psychophysics","509","1469156","0.0-2.0-1.158","aea","[""R""]","","","","","","null","key","null","null","16.672666666668373","912","513","2","1","1","1","0","","",""
"","psychophysics","510","1470165","0.0-2.0-3.158-0.158","aea","[""R""]","","","","","","null","key","null","null","16.672728813561154","912","513","2","1","1","1","0","","",""
"","psychophysics","511","1470953","0.0-2.0-0.159","aea","[""R""]","","","","","","84","key","m","m","16.67178723404303","912","513","2","0","0","0","1","true","",""
"","psychophysics","512","1471964","0.0-2.0-1.159","aea","[""R""]","","","","","","null","key","null","null","16.671525423730706","912","513","2","0","0","0","1","","",""
"","psychophysics","513","1472981","0.0-2.0-2.159-0.159","aea","[""R""]","","","","","","null","key","null","null","16.6728166666658","912","513","2","0","0","0","1","","",""
"","psychophysics","514","1476418","0.0-2.0-0.160","aea","[""R""]","","","","","","2731","key","z","z","16.672107317072633","912","513","1","0","0","1","0","true","",""
"","psychophysics","515","1477429","0.0-2.0-1.160","aea","[""R""]","","","","","","null","key","null","null","16.680400000000372","912","513","1","0","0","1","0","","",""
"","psychophysics","516","1478438","0.0-2.0-2.160-0.160","aea","[""R""]","","","","","","null","key","null","null","16.672999999998137","912","513","1","0","0","1","0","","",""
"","psychophysics","517","1480426","0.0-2.0-0.161","aea","[""R""]","","","","","","1277","key","m","m","16.671838983050865","912","513","1","1","1","0","0","false","",""
"","psychophysics","518","1481440","0.0-2.0-1.161","aea","[""R""]","","","","","","null","key","null","null","16.671711864407662","912","513","1","1","1","0","0","","",""
"","psychophysics","519","1482453","0.0-2.0-3.161-0.161","aea","[""R""]","","","","","","null","key","null","null","16.605850000000405","912","513","1","1","1","0","0","","",""
"","psychophysics","520","1486092","0.0-2.0-0.162","aea","[""R""]","","","","","","2935","key","z","z","16.748635944700048","912","513","1","0","0","1","0","true","",""
"","psychophysics","521","1487100","0.0-2.0-1.162","aea","[""R""]","","","","","","null","key","null","null","16.671661016949596","912","513","1","0","0","1","0","","",""
"","psychophysics","522","1488116","0.0-2.0-2.162-0.162","aea","[""R""]","","","","","","null","key","null","null","16.672916666666666","912","513","1","0","0","1","0","","",""
"","psychophysics","523","1490560","0.0-2.0-0.163","aea","[""R""]","","","","","","1739","key","z","z","16.67183561643828","912","513","1","0","1","1","1","true","",""
"","psychophysics","524","1491564","0.0-2.0-1.163","aea","[""R""]","","","","","","null","key","null","null","16.67398305084572","912","513","1","0","1","1","1","","",""
"","psychophysics","525","1492576","0.0-2.0-2.163-0.163","aea","[""R""]","","","","","","null","key","null","null","16.6728166666658","912","513","1","0","1","1","1","","",""
"","psychophysics","526","1494945","0.0-2.0-0.164","aea","[""R""]","","","","","","1660","key","m","m","16.67187234042675","912","513","2","1","0","1","0","true","",""
"","psychophysics","527","1495957","0.0-2.0-1.164","aea","[""R""]","","","","","","null","key","null","null","16.67215254237102","912","513","2","1","0","1","0","","",""
"","psychophysics","528","1496972","0.0-2.0-2.164-0.164","aea","[""R""]","","","","","","null","key","null","null","16.670633333335477","912","513","2","1","0","1","0","","",""
"","psychophysics","529","1500017","0.0-2.0-0.165","aea","[""R""]","","","","","","2340","key","m","m","16.67204945054862","912","513","2","1","0","1","1","true","",""
"","psychophysics","530","1501025","0.0-2.0-1.165","aea","[""R""]","","","","","","null","key","null","null","16.670661016951424","912","513","2","1","0","1","1","","",""
"","psychophysics","531","1502036","0.0-2.0-2.165-0.165","aea","[""R""]","","","","","","null","key","null","null","16.67070000000143","912","513","2","1","0","1","1","","",""
"","psychophysics","532","1504705","0.0-2.0-0.166","aea","[""R""]","","","","","","1965","key","z","z","16.67222012578709","912","513","2","1","1","0","0","false","",""
"","psychophysics","533","1505713","0.0-2.0-1.166","aea","[""R""]","","","","","","null","key","null","null","16.672833333331315","912","513","2","1","1","0","0","","",""
"","psychophysics","534","1506725","0.0-2.0-3.166-0.166","aea","[""R""]","","","","","","null","key","null","null","16.671593220336206","912","513","2","1","1","0","0","","",""
"","psychophysics","535","1509937","0.0-2.0-0.167","aea","[""R""]","","","","","","2506","key","m","m","16.67210416666664","912","513","2","1","1","1","1","true","",""
"","psychophysics","536","1510945","0.0-2.0-1.167","aea","[""R""]","","","","","","null","key","null","null","16.673525423730993","912","513","2","1","1","1","1","","",""
"","psychophysics","537","1511956","0.0-2.0-2.167-0.167","aea","[""R""]","","","","","","null","key","null","null","16.67178333333383","912","513","2","1","1","1","1","","",""
"","psychophysics","538","1513201","0.0-2.0-0.168","aea","[""R""]","","","","","","539","key","m","m","16.672540540539508","912","513","1","0","0","1","1","false","",""
"","psychophysics","539","1514212","0.0-2.0-1.168","aea","[""R""]","","","","","","null","key","null","null","16.671915254235994","912","513","1","0","0","1","1","","",""
"","psychophysics","540","1515228","0.0-2.0-3.168-0.168","aea","[""R""]","","","","","","null","key","null","null","16.67206666666704","912","513","1","0","0","1","1","","",""
"","psychophysics","541","1516434","0.0-2.0-0.169","aea","[""R""]","","","","","","501","key","m","m","16.672638888891218","912","513","1","1","0","0","1","false","",""
"","psychophysics","542","1517444","0.0-2.0-1.169","aea","[""R""]","","","","","","null","key","null","null","16.67238983050999","912","513","1","1","0","0","1","","",""
"","psychophysics","543","1518461","0.0-2.0-3.169-0.169","aea","[""R""]","","","","","","null","key","null","null","16.67216666666403","912","513","1","1","0","0","1","","",""
"","psychophysics","544","1519657","0.0-2.0-0.170","aea","[""R""]","","","","","","489","key","m","m","16.672605633801243","912","513","2","0","1","0","1","true","",""
"","psychophysics","545","1520664","0.0-2.0-1.170","aea","[""R""]","","","","","","null","key","null","null","16.672525423728878","912","513","2","0","1","0","1","","",""
"","psychophysics","546","1521676","0.0-2.0-2.170-0.170","aea","[""R""]","","","","","","null","key","null","null","16.67186666666918","912","513","2","0","1","0","1","","",""
"","psychophysics","547","1524804","0.0-2.0-0.171","aea","[""R""]","","","","","","2422","key","m","m","16.672122994653215","912","513","1","0","0","0","0","false","",""
"","psychophysics","548","1525812","0.0-2.0-1.171","aea","[""R""]","","","","","","null","key","null","null","16.671406779663194","912","513","1","0","0","0","0","","",""
"","psychophysics","549","1526829","0.0-2.0-3.171-0.171","aea","[""R""]","","","","","","null","key","null","null","16.67269999999941","912","513","1","0","0","0","0","","",""
"","psychophysics","550","1529805","0.0-2.0-0.172","aea","[""R""]","","","","","","2272","key","m","m","16.671882022471753","912","513","1","0","1","1","1","false","",""
"","psychophysics","551","1530813","0.0-2.0-1.172","aea","[""R""]","","","","","","null","key","null","null","16.67249152542218","912","513","1","0","1","1","1","","",""
"","psychophysics","552","1531829","0.0-2.0-3.172-0.172","aea","[""R""]","","","","","","null","key","null","null","16.672633333333458","912","513","1","0","1","1","1","","",""
"","psychophysics","553","1534257","0.0-2.0-0.173","aea","[""R""]","","","","","","1724","key","m","m","16.67215862068958","912","513","2","1","1","0","1","true","",""
"","psychophysics","554","1535269","0.0-2.0-1.173","aea","[""R""]","","","","","","null","key","null","null","16.67186440678187","912","513","2","1","1","0","1","","",""
"","psychophysics","555","1536286","0.0-2.0-2.173-0.173","aea","[""R""]","","","","","","null","key","null","null","16.671816666664867","912","513","2","1","1","0","1","","",""
"","psychophysics","556","1538625","0.0-2.0-0.174","aea","[""R""]","","","","","","1635","key","m","m","16.79176258992759","912","513","2","1","1","1","1","true","",""
"","psychophysics","557","1539637","0.0-2.0-1.174","aea","[""R""]","","","","","","null","key","null","null","16.671864406777924","912","513","2","1","1","1","1","","",""
"","psychophysics","558","1540654","0.0-2.0-2.174-0.174","aea","[""R""]","","","","","","null","key","null","null","16.671699999998477","912","513","2","1","1","1","1","","",""
"","psychophysics","559","1544513","0.0-2.0-0.175","aea","[""R""]","","","","","","3155","key","m","m","16.67201298701343","912","513","2","1","1","1","1","true","",""
"","psychophysics","560","1545522","0.0-2.0-1.175","aea","[""R""]","","","","","","null","key","null","null","16.671661016949596","912","513","2","1","1","1","1","","",""
"","psychophysics","561","1546532","0.0-2.0-2.175-0.175","aea","[""R""]","","","","","","null","key","null","null","16.671749999998912","912","513","2","1","1","1","1","","",""
"","psychophysics","562","1549385","0.0-2.0-0.176","aea","[""R""]","","","","","","2149","key","m","m","16.672299999999815","912","513","2","1","0","1","1","true","",""
"","psychophysics","563","1550393","0.0-2.0-1.176","aea","[""R""]","","","","","","null","key","null","null","16.672550000001987","912","513","2","1","0","1","1","","",""
"","psychophysics","564","1551404","0.0-2.0-2.176-0.176","aea","[""R""]","","","","","","null","key","null","null","16.67174576271041","912","513","2","1","0","1","1","","",""
"","psychophysics","565","1553329","0.0-2.0-0.177","aea","[""R""]","","","","","","1218","key","z","z","16.672269565219302","912","513","1","0","0","1","0","true","",""
"","psychophysics","566","1554341","0.0-2.0-1.177","aea","[""R""]","","","","","","null","key","null","null","16.673186440679828","912","513","1","0","0","1","0","","",""
"","psychophysics","567","1555356","0.0-2.0-2.177-0.177","aea","[""R""]","","","","","","null","key","null","null","16.67176666666831","912","513","1","0","0","1","0","","",""
"","psychophysics","568","1558273","0.0-2.0-0.178","aea","[""R""]","","","","","","2211","key","m","m","16.67216666666764","912","513","1","1","1","0","0","false","",""
"","psychophysics","569","1559285","0.0-2.0-1.178","aea","[""R""]","","","","","","null","key","null","null","16.672899999997266","912","513","1","1","1","0","0","","",""
"","psychophysics","570","1560296","0.0-2.0-3.178-0.178","aea","[""R""]","","","","","","null","key","null","null","16.67278333333476","912","513","1","1","1","0","0","","",""
"","psychophysics","571","1563225","0.0-2.0-0.179","aea","[""R""]","","","","","","2220","key","m","m","16.671810344827694","912","513","2","0","1","1","1","true","",""
"","psychophysics","572","1564236","0.0-2.0-1.179","aea","[""R""]","","","","","","null","key","null","null","16.67288333333175","912","513","2","0","1","1","1","","",""
"","psychophysics","573","1565248","0.0-2.0-2.179-0.179","aea","[""R""]","","","","","","null","key","null","null","16.6729666666671","912","513","2","0","1","1","1","","",""
"","psychophysics","574","1568321","0.0-2.0-0.180","aea","[""R""]","","","","","","2364","key","m","m","16.671852459016517","912","513","2","1","0","1","1","true","",""
"","psychophysics","575","1569329","0.0-2.0-1.180","aea","[""R""]","","","","","","null","key","null","null","16.672084745761577","912","513","2","1","0","1","1","","",""
"","psychophysics","576","1570340","0.0-2.0-2.180-0.180","aea","[""R""]","","","","","","null","key","null","null","16.671966666670052","912","513","2","1","0","1","1","","",""
"","psychophysics","577","1577239","0.0-2.0-0.181","aea","[""R""]","","","","","","6195","key","z","z","16.671743341404763","912","513","1","0","1","1","0","true","",""
