"success","trial_type","trial_index","time_elapsed","internal_node_id","subject","condition","timeout","failed_images","failed_audio","failed_video","view_history","rt","response_type","key_press","response","avg_frame_time","center_x","center_y","outcome","p1conf","p2conf","p1rslt","p2rslt","correct","stimulus","question_order"
"true","fullscreen","0","478762","0.0-0.0-0.0","1np","[""R""]","","","","","","","","","","","","","","","","","","","",""
"true","preload","1","478767","0.0-0.0-1.0","1np","[""R""]","false","[]","[]","[]","","","","","","","","","","","","","","","",""
"","instructions","2","548246","0.0-1.0","1np","[""R""]","","","","","[{""page_index"":0,""viewing_time"":21052},{""page_index"":1,""viewing_time"":32016},{""page_index"":2,""viewing_time"":16408}]","69477","","","","","","","","","","","","","",""
"","psychophysics","3","551667","0.0-2.0-0.0","1np","[""R""]","","","","","","2715","key","z","z","17.261515151515294","912","513","2","1","0","0","0","false","",""
"","psychophysics","4","552687","0.0-2.0-1.0","1np","[""R""]","","","","","","null","key","null","null","16.672666666666434","912","513","2","1","0","0","0","","",""
"","psychophysics","5","553702","0.0-2.0-3.0-0.0","1np","[""R""]","","","","","","null","key","null","null","16.673000000000076","912","513","2","1","0","0","0","","",""
"","psychophysics","6","559123","0.0-2.0-0.1","1np","[""R""]","","","","","","4711","key","z","z","16.67206172839513","912","513","2","0","0","0","1","false","",""
"","psychophysics","7","560135","0.0-2.0-1.1","1np","[""R""]","","","","","","null","key","null","null","16.67280000000028","912","513","2","0","0","0","1","","",""
"","psychophysics","8","561146","0.0-2.0-3.1-0.1","1np","[""R""]","","","","","","null","key","null","null","16.672583333333023","912","513","2","0","0","0","1","","",""
"","psychophysics","9","569211","0.0-2.0-0.2","1np","[""R""]","","","","","","7356","key","m","m","16.671906639004263","912","513","1","0","0","1","1","false","",""
"","psychophysics","10","570223","0.0-2.0-1.2","1np","[""R""]","","","","","","null","key","null","null","16.67296666666516","912","513","1","0","0","1","1","","",""
"","psychophysics","11","571239","0.0-2.0-3.2-0.2","1np","[""R""]","","","","","","null","key","null","null","16.673000000000076","912","513","1","0","0","1","1","","",""
"","psychophysics","12","575978","0.0-2.0-0.3","1np","[""R""]","","","","","","4032","key","m","m","16.67213074204943","912","513","2","1","1","1","1","true","",""
"","psychophysics","13","576991","0.0-2.0-1.3","1np","[""R""]","","","","","","null","key","null","null","16.67294999999964","912","513","2","1","1","1","1","","",""
"","psychophysics","14","578001","0.0-2.0-2.3-0.3","1np","[""R""]","","","","","","null","key","null","null","16.67196666666617","912","513","2","1","1","1","1","","",""
"","psychophysics","15","586267","0.0-2.0-0.4","1np","[""R""]","","","","","","7555","key","m","m","16.671858299595232","912","513","1","0","0","1","1","false","",""
"","psychophysics","16","587279","0.0-2.0-1.4","1np","[""R""]","","","","","","null","key","null","null","16.672283333332356","912","513","1","0","0","1","1","","",""
"","psychophysics","17","588295","0.0-2.0-3.4-0.4","1np","[""R""]","","","","","","null","key","null","null","16.672383333333226","912","513","1","0","0","1","1","","",""
"","psychophysics","18","593050","0.0-2.0-0.5","1np","[""R""]","","","","","","4049","key","z","z","16.671936619718164","912","513","2","1","1","1","0","false","",""
"","psychophysics","19","594063","0.0-2.0-1.5","1np","[""R""]","","","","","","null","key","null","null","16.672749999999844","912","513","2","1","1","1","0","","",""
"","psychophysics","20","595074","0.0-2.0-3.5-0.5","1np","[""R""]","","","","","","null","key","null","null","16.672100000000015","912","513","2","1","1","1","0","","",""
"","psychophysics","21","600155","0.0-2.0-0.6","1np","[""R""]","","","","","","4372","key","m","m","16.67197029702957","912","513","2","1","0","1","1","true","",""
"","psychophysics","22","601167","0.0-2.0-1.6","1np","[""R""]","","","","","","null","key","null","null","16.672350000000247","912","513","2","1","0","1","1","","",""
"","psychophysics","23","602183","0.0-2.0-2.6-0.6","1np","[""R""]","","","","","","null","key","null","null","16.6728166666658","912","513","2","1","0","1","1","","",""
"","psychophysics","24","605163","0.0-2.0-0.7","1np","[""R""]","","","","","","2275","key","m","m","16.672241573033624","912","513","2","1","0","1","0","true","",""
"","psychophysics","25","606173","0.0-2.0-1.7","1np","[""R""]","","","","","","null","key","null","null","16.671355932203152","912","513","2","1","0","1","0","","",""
"","psychophysics","26","607191","0.0-2.0-2.7-0.7","1np","[""R""]","","","","","","null","key","null","null","16.67196666666617","912","513","2","1","0","1","0","","",""
"","psychophysics","27","610013","0.0-2.0-0.8","1np","[""R""]","","","","","","2110","key","z","z","16.67171597633147","912","513","2","1","0","0","1","false","",""
"","psychophysics","28","611023","0.0-2.0-1.8","1np","[""R""]","","","","","","null","key","null","null","16.6720677966102","912","513","2","1","0","0","1","","",""
"","psychophysics","29","612039","0.0-2.0-3.8-0.8","1np","[""R""]","","","","","","null","key","null","null","16.672200000000885","912","513","2","1","0","0","1","","",""
"","psychophysics","30","615443","0.0-2.0-0.9","1np","[""R""]","","","","","","2696","key","z","z","16.67213300492596","912","513","1","0","1","0","1","true","",""
"","psychophysics","31","616455","0.0-2.0-1.9","1np","[""R""]","","","","","","null","key","null","null","16.673116666668406","912","513","1","0","1","0","1","","",""
"","psychophysics","32","617471","0.0-2.0-2.9-0.9","1np","[""R""]","","","","","","null","key","null","null","16.672133333334934","912","513","1","0","1","0","1","","",""
"","psychophysics","33","621099","0.0-2.0-0.10","1np","[""R""]","","","","","","2922","key","z","z","16.67215207373307","912","513","1","1","1","1","0","true","",""
"","psychophysics","34","622112","0.0-2.0-1.10","1np","[""R""]","","","","","","null","key","null","null","16.67179661016848","912","513","1","1","1","1","0","","",""
"","psychophysics","35","623127","0.0-2.0-2.10-0.10","1np","[""R""]","","","","","","null","key","null","null","16.671900000000218","912","513","1","1","1","1","0","","",""
"","psychophysics","36","626067","0.0-2.0-0.11","1np","[""R""]","","","","","","2234","key","m","m","16.672210227272114","912","513","2","1","1","1","1","true","",""
"","psychophysics","37","627080","0.0-2.0-1.11","1np","[""R""]","","","","","","null","key","null","null","16.671745762712387","912","513","2","1","1","1","1","","",""
"","psychophysics","38","628095","0.0-2.0-2.11-0.11","1np","[""R""]","","","","","","null","key","null","null","16.671733333333396","912","513","2","1","1","1","1","","",""
"","psychophysics","39","631706","0.0-2.0-0.12","1np","[""R""]","","","","","","2905","key","z","z","16.67205555555551","912","513","1","0","0","1","1","true","",""
"","psychophysics","40","632715","0.0-2.0-1.12","1np","[""R""]","","","","","","null","key","null","null","16.672677966101112","912","513","1","0","0","1","1","","",""
"","psychophysics","41","633727","0.0-2.0-2.12-0.12","1np","[""R""]","","","","","","null","key","null","null","16.67204999999958","912","513","1","0","0","1","1","","",""
"","psychophysics","42","637667","0.0-2.0-0.13","1np","[""R""]","","","","","","3234","key","z","z","16.74333760683757","912","513","1","1","1","1","1","true","",""
"","psychophysics","43","638679","0.0-2.0-1.13","1np","[""R""]","","","","","","null","key","null","null","16.67161666666701","912","513","1","1","1","1","1","","",""
"","psychophysics","44","639695","0.0-2.0-2.13-0.13","1np","[""R""]","","","","","","null","key","null","null","16.67306666666797","912","513","1","1","1","1","1","","",""
"","psychophysics","45","643298","0.0-2.0-0.14","1np","[""R""]","","","","","","2897","key","m","m","16.672153488372256","912","513","2","0","0","0","1","true","",""
"","psychophysics","46","644311","0.0-2.0-1.14","1np","[""R""]","","","","","","null","key","null","null","16.672766666665364","912","513","2","0","0","0","1","","",""
"","psychophysics","47","645323","0.0-2.0-2.14-0.14","1np","[""R""]","","","","","","null","key","null","null","16.672833333333255","912","513","2","0","0","0","1","","",""
"","psychophysics","48","648204","0.0-2.0-0.15","1np","[""R""]","","","","","","2172","key","z","z","16.672286549707664","912","513","2","0","1","1","0","false","",""
"","psychophysics","49","649215","0.0-2.0-1.15","1np","[""R""]","","","","","","null","key","null","null","16.67170000000042","912","513","2","0","1","1","0","","",""
"","psychophysics","50","650231","0.0-2.0-3.15-0.15","1np","[""R""]","","","","","","null","key","null","null","16.67281666666774","912","513","2","0","1","1","0","","",""
"","psychophysics","51","653082","0.0-2.0-0.16","1np","[""R""]","","","","","","2145","key","z","z","16.672170588235126","912","513","2","1","1","0","1","false","",""
"","psychophysics","52","654092","0.0-2.0-1.16","1np","[""R""]","","","","","","null","key","null","null","16.67270000000135","912","513","2","1","1","0","1","","",""
"","psychophysics","53","655103","0.0-2.0-3.16-0.16","1np","[""R""]","","","","","","null","key","null","null","16.671745762712387","912","513","2","1","1","0","1","","",""
"","psychophysics","54","660362","0.0-2.0-0.17","1np","[""R""]","","","","","","4553","key","z","z","16.672041269841547","912","513","1","0","1","1","1","true","",""
"","psychophysics","55","661374","0.0-2.0-1.17","1np","[""R""]","","","","","","null","key","null","null","16.671915254235994","912","513","1","0","1","1","1","","",""
"","psychophysics","56","662391","0.0-2.0-2.17-0.17","1np","[""R""]","","","","","","null","key","null","null","16.671733333333396","912","513","1","0","1","1","1","","",""
"","psychophysics","57","665834","0.0-2.0-0.18","1np","[""R""]","","","","","","2731","key","m","m","16.671834951455963","912","513","2","0","0","1","0","true","",""
"","psychophysics","58","666842","0.0-2.0-1.18","1np","[""R""]","","","","","","null","key","null","null","16.672694915254457","912","513","2","0","0","1","0","","",""
"","psychophysics","59","667855","0.0-2.0-2.18-0.18","1np","[""R""]","","","","","","null","key","null","null","16.671916666667677","912","513","2","0","0","1","0","","",""
"","psychophysics","60","671982","0.0-2.0-0.19","1np","[""R""]","","","","","","3423","key","m","m","16.672165991902457","912","513","1","0","0","1","0","false","",""
"","psychophysics","61","672991","0.0-2.0-1.19","1np","[""R""]","","","","","","null","key","null","null","16.67189830508462","912","513","1","0","0","1","0","","",""
"","psychophysics","62","674007","0.0-2.0-3.19-0.19","1np","[""R""]","","","","","","null","key","null","null","16.67271666666687","912","513","1","0","0","1","0","","",""
"","psychophysics","63","676874","0.0-2.0-0.20","1np","[""R""]","","","","","","2163","key","m","m","16.672274853800673","912","513","2","1","1","1","1","true","",""
"","psychophysics","64","677883","0.0-2.0-1.20","1np","[""R""]","","","","","","null","key","null","null","16.671866666667242","912","513","2","1","1","1","1","","",""
"","psychophysics","65","678895","0.0-2.0-2.20-0.20","1np","[""R""]","","","","","","null","key","null","null","16.671508474575386","912","513","2","1","1","1","1","","",""
"","psychophysics","66","680868","0.0-2.0-0.21","1np","[""R""]","","","","","","1268","key","z","z","16.672245762712457","912","513","1","0","1","0","1","true","",""
"","psychophysics","67","681880","0.0-2.0-1.21","1np","[""R""]","","","","","","null","key","null","null","16.67177966101711","912","513","1","0","1","0","1","","",""
"","psychophysics","68","682895","0.0-2.0-2.21-0.21","1np","[""R""]","","","","","","null","key","null","null","16.672383333333226","912","513","1","0","1","0","1","","",""
"","psychophysics","69","684915","0.0-2.0-0.22","1np","[""R""]","","","","","","1313","key","m","m","16.671749999999882","912","513","1","0","1","1","0","false","",""
"","psychophysics","70","685927","0.0-2.0-1.22","1np","[""R""]","","","","","","null","key","null","null","16.671166666666977","912","513","1","0","1","1","0","","",""
"","psychophysics","71","686943","0.0-2.0-3.22-0.22","1np","[""R""]","","","","","","null","key","null","null","16.67223333333386","912","513","1","0","1","1","0","","",""
"","psychophysics","72","689074","0.0-2.0-0.23","1np","[""R""]","","","","","","1428","key","m","m","16.67220472440941","912","513","2","1","1","1","1","true","",""
"","psychophysics","73","690083","0.0-2.0-1.23","1np","[""R""]","","","","","","null","key","null","null","16.673152542373135","912","513","2","1","1","1","1","","",""
"","psychophysics","74","691095","0.0-2.0-2.23-0.23","1np","[""R""]","","","","","","null","key","null","null","16.671833333334266","912","513","2","1","1","1","1","","",""
"","psychophysics","75","693042","0.0-2.0-0.24","1np","[""R""]","","","","","","1242","key","z","z","16.67231034482769","912","513","1","1","1","1","1","true","",""
"","psychophysics","76","694051","0.0-2.0-1.24","1np","[""R""]","","","","","","null","key","null","null","16.673050847456995","912","513","1","1","1","1","1","","",""
"","psychophysics","77","695063","0.0-2.0-2.24-0.24","1np","[""R""]","","","","","","null","key","null","null","16.67204999999958","912","513","1","1","1","1","1","","",""
"","psychophysics","78","697190","0.0-2.0-0.25","1np","[""R""]","","","","","","1424","key","m","m","16.672251968504312","912","513","2","0","1","1","1","true","",""
"","psychophysics","79","698199","0.0-2.0-1.25","1np","[""R""]","","","","","","null","key","null","null","16.67176271186376","912","513","2","0","1","1","1","","",""
"","psychophysics","80","699216","0.0-2.0-2.25-0.25","1np","[""R""]","","","","","","null","key","null","null","16.672733333332385","912","513","2","0","1","1","1","","",""
"","psychophysics","81","701114","0.0-2.0-0.26","1np","[""R""]","","","","","","1191","key","m","m","16.672159292035637","912","513","2","0","1","0","1","true","",""
"","psychophysics","82","702123","0.0-2.0-1.26","1np","[""R""]","","","","","","null","key","null","null","16.955355932202064","912","513","2","0","1","0","1","","",""
"","psychophysics","83","703135","0.0-2.0-2.26-0.26","1np","[""R""]","","","","","","null","key","null","null","16.671711864407662","912","513","2","0","1","0","1","","",""
"","psychophysics","84","705546","0.0-2.0-0.27","1np","[""R""]","","","","","","1705","key","z","z","16.672131944444523","912","513","2","0","0","1","0","false","",""
"","psychophysics","85","706555","0.0-2.0-1.27","1np","[""R""]","","","","","","null","key","null","null","16.672406779661365","912","513","2","0","0","1","0","","",""
"","psychophysics","86","707567","0.0-2.0-3.27-0.27","1np","[""R""]","","","","","","null","key","null","null","16.67141666666721","912","513","2","0","0","1","0","","",""
"","psychophysics","87","709898","0.0-2.0-0.28","1np","[""R""]","","","","","","1627","key","m","m","16.672244604316827","912","513","2","0","0","1","1","true","",""
"","psychophysics","88","710909","0.0-2.0-1.28","1np","[""R""]","","","","","","null","key","null","null","16.672683333333893","912","513","2","0","0","1","1","","",""
"","psychophysics","89","711919","0.0-2.0-2.28-0.28","1np","[""R""]","","","","","","null","key","null","null","16.672033898303507","912","513","2","0","0","1","1","","",""
"","psychophysics","90","713770","0.0-2.0-0.29","1np","[""R""]","","","","","","1147","key","m","m","16.67234545454531","912","513","2","0","0","1","1","true","",""
"","psychophysics","91","714783","0.0-2.0-1.29","1np","[""R""]","","","","","","null","key","null","null","16.672633333333458","912","513","2","0","0","1","1","","",""
"","psychophysics","92","715794","0.0-2.0-2.29-0.29","1np","[""R""]","","","","","","null","key","null","null","16.67288333333369","912","513","2","0","0","1","1","","",""
"","psychophysics","93","717645","0.0-2.0-0.30","1np","[""R""]","","","","","","1143","key","m","m","16.671390909090935","912","513","2","1","1","1","1","true","",""
"","psychophysics","94","718654","0.0-2.0-1.30","1np","[""R""]","","","","","","null","key","null","null","16.671694915254317","912","513","2","1","1","1","1","","",""
"","psychophysics","95","719670","0.0-2.0-2.30-0.30","1np","[""R""]","","","","","","null","key","null","null","16.672766666667304","912","513","2","1","1","1","1","","",""
"","psychophysics","96","721930","0.0-2.0-0.31","1np","[""R""]","","","","","","1555","key","m","m","16.67230370370326","912","513","2","1","1","1","1","true","",""
"","psychophysics","97","722943","0.0-2.0-1.31","1np","[""R""]","","","","","","null","key","null","null","16.548084745763692","912","513","2","1","1","1","1","","",""
"","psychophysics","98","723960","0.0-2.0-2.31-0.31","1np","[""R""]","","","","","","null","key","null","null","16.671900000000218","912","513","2","1","1","1","1","","",""
"","psychophysics","99","725818","0.0-2.0-0.32","1np","[""R""]","","","","","","1154","key","z","z","16.671882882883125","912","513","1","0","1","1","1","true","",""
"","psychophysics","100","726827","0.0-2.0-1.32","1np","[""R""]","","","","","","null","key","null","null","16.67177966101711","912","513","1","0","1","1","1","","",""
"","psychophysics","101","727838","0.0-2.0-2.32-0.32","1np","[""R""]","","","","","","null","key","null","null","16.67176666666637","912","513","1","0","1","1","1","","",""
"","psychophysics","102","730394","0.0-2.0-0.33","1np","[""R""]","","","","","","1851","key","z","z","16.672230263157918","912","513","2","1","1","0","1","false","",""
"","psychophysics","103","731406","0.0-2.0-1.33","1np","[""R""]","","","","","","null","key","null","null","16.67280000000028","912","513","2","1","1","0","1","","",""
"","psychophysics","104","732416","0.0-2.0-3.33-0.33","1np","[""R""]","","","","","","null","key","null","null","16.6728166666658","912","513","2","1","1","0","1","","",""
"","psychophysics","105","736626","0.0-2.0-0.34","1np","[""R""]","","","","","","3500","key","z","z","16.67183266932273","912","513","1","0","0","0","1","true","",""
"","psychophysics","106","737634","0.0-2.0-1.34","1np","[""R""]","","","","","","null","key","null","null","16.672866666668174","912","513","1","0","0","0","1","","",""
"","psychophysics","107","738647","0.0-2.0-2.34-0.34","1np","[""R""]","","","","","","null","key","null","null","16.671186440677573","912","513","1","0","0","0","1","","",""
"","psychophysics","108","742458","0.0-2.0-0.35","1np","[""R""]","","","","","","3106","key","z","z","16.6720657894733","912","513","1","1","0","1","0","true","",""
"","psychophysics","109","743466","0.0-2.0-1.35","1np","[""R""]","","","","","","null","key","null","null","16.672440677966087","912","513","1","1","0","1","0","","",""
"","psychophysics","110","744479","0.0-2.0-2.35-0.35","1np","[""R""]","","","","","","null","key","null","null","16.671633333334466","912","513","1","1","0","1","0","","",""
"","psychophysics","111","746162","0.0-2.0-0.36","1np","[""R""]","","","","","","979","key","m","m","16.672550000000047","912","513","2","0","1","0","1","true","",""
"","psychophysics","112","747171","0.0-2.0-1.36","1np","[""R""]","","","","","","null","key","null","null","16.67261666666794","912","513","2","0","1","0","1","","",""
"","psychophysics","113","748183","0.0-2.0-2.36-0.36","1np","[""R""]","","","","","","null","key","null","null","16.671305084745082","912","513","2","0","1","0","1","","",""
"","psychophysics","114","749882","0.0-2.0-0.37","1np","[""R""]","","","","","","994","key","m","m","16.67234653465353","912","513","1","0","1","1","0","false","",""
"","psychophysics","115","750894","0.0-2.0-1.37","1np","[""R""]","","","","","","null","key","null","null","16.67223333333192","912","513","1","0","1","1","0","","",""
"","psychophysics","116","751905","0.0-2.0-3.37-0.37","1np","[""R""]","","","","","","null","key","null","null","16.672833333333255","912","513","1","0","1","1","0","","",""
"","psychophysics","117","754026","0.0-2.0-0.38","1np","[""R""]","","","","","","1411","key","z","z","16.67198412698446","912","513","1","1","1","1","1","true","",""
"","psychophysics","118","755041","0.0-2.0-1.38","1np","[""R""]","","","","","","null","key","null","null","16.671450000000185","912","513","1","1","1","1","1","","",""
"","psychophysics","119","756053","0.0-2.0-2.38-0.38","1np","[""R""]","","","","","","null","key","null","null","16.671966101696036","912","513","1","1","1","1","1","","",""
"","psychophysics","120","758234","0.0-2.0-0.39","1np","[""R""]","","","","","","1476","key","m","m","16.6721692307691","912","513","1","1","0","0","0","false","",""
"","psychophysics","121","759247","0.0-2.0-1.39","1np","[""R""]","","","","","","null","key","null","null","16.673183333332418","912","513","1","1","0","0","0","","",""
"","psychophysics","122","760258","0.0-2.0-3.39-0.39","1np","[""R""]","","","","","","null","key","null","null","16.672649999998974","912","513","1","1","0","0","0","","",""
"","psychophysics","123","764010","0.0-2.0-0.40","1np","[""R""]","","","","","","3043","key","m","m","16.671803571428818","912","513","2","0","0","1","1","true","",""
"","psychophysics","124","765022","0.0-2.0-1.40","1np","[""R""]","","","","","","null","key","null","null","16.671474576270665","912","513","2","0","0","1","1","","",""
"","psychophysics","125","766038","0.0-2.0-2.40-0.40","1np","[""R""]","","","","","","null","key","null","null","16.672450000001117","912","513","2","0","0","1","1","","",""
"","psychophysics","126","771930","0.0-2.0-0.41","1np","[""R""]","","","","","","5186","key","z","z","16.671912181302943","912","513","2","0","1","1","0","false","",""
"","psychophysics","127","772941","0.0-2.0-1.41","1np","[""R""]","","","","","","null","key","null","null","16.672627118645014","912","513","2","0","1","1","0","","",""
"","psychophysics","128","773951","0.0-2.0-3.41-0.41","1np","[""R""]","","","","","","null","key","null","null","16.67294999999964","912","513","2","0","1","1","0","","",""
"","psychophysics","129","779474","0.0-2.0-0.42","1np","[""R""]","","","","","","4815","key","m","m","16.67200000000003","912","513","2","0","0","1","0","true","",""
"","psychophysics","130","780486","0.0-2.0-1.42","1np","[""R""]","","","","","","null","key","null","null","16.672650000000917","912","513","2","0","0","1","0","","",""
"","psychophysics","131","781498","0.0-2.0-2.42-0.42","1np","[""R""]","","","","","","null","key","null","null","16.67206666666704","912","513","2","0","0","1","0","","",""
"","psychophysics","132","785250","0.0-2.0-0.43","1np","[""R""]","","","","","","3044","key","z","z","16.671781250000226","912","513","1","0","0","1","0","true","",""
"","psychophysics","133","786262","0.0-2.0-1.43","1np","[""R""]","","","","","","null","key","null","null","16.671694915252342","912","513","1","0","0","1","0","","",""
"","psychophysics","134","787278","0.0-2.0-2.43-0.43","1np","[""R""]","","","","","","null","key","null","null","16.67178333333383","912","513","1","0","0","1","0","","",""
"","psychophysics","135","790578","0.0-2.0-0.44","1np","[""R""]","","","","","","2594","key","m","m","16.671903553299444","912","513","1","0","0","1","1","false","",""
"","psychophysics","136","791590","0.0-2.0-1.44","1np","[""R""]","","","","","","null","key","null","null","16.67306666666603","912","513","1","0","0","1","1","","",""
"","psychophysics","137","792601","0.0-2.0-3.44-0.44","1np","[""R""]","","","","","","null","key","null","null","16.67269999999941","912","513","1","0","0","1","1","","",""
"","psychophysics","138","794937","0.0-2.0-0.45","1np","[""R""]","","","","","","1627","key","m","m","16.79268115942039","912","513","2","1","1","1","1","true","",""
"","psychophysics","139","795949","0.0-2.0-1.45","1np","[""R""]","","","","","","null","key","null","null","16.671915254235994","912","513","2","1","1","1","1","","",""
"","psychophysics","140","796959","0.0-2.0-2.45-0.45","1np","[""R""]","","","","","","null","key","null","null","16.67206666666704","912","513","2","1","1","1","1","","",""
"","psychophysics","141","799994","0.0-2.0-0.46","1np","[""R""]","","","","","","2328","key","z","z","16.671906077348016","912","513","1","1","1","1","1","true","",""
"","psychophysics","142","801004","0.0-2.0-1.46","1np","[""R""]","","","","","","null","key","null","null","16.672116666667474","912","513","1","1","1","1","1","","",""
"","psychophysics","143","802014","0.0-2.0-2.46-0.46","1np","[""R""]","","","","","","null","key","null","null","16.671203389830918","912","513","1","1","1","1","1","","",""
"","psychophysics","144","804578","0.0-2.0-0.47","1np","[""R""]","","","","","","1856","key","z","z","16.672084967320437","912","513","1","1","1","1","0","true","",""
"","psychophysics","145","805585","0.0-2.0-1.47","1np","[""R""]","","","","","","null","key","null","null","16.67203389830548","912","513","1","1","1","1","0","","",""
"","psychophysics","146","806598","0.0-2.0-2.47-0.47","1np","[""R""]","","","","","","null","key","null","null","16.672633333333458","912","513","1","1","1","1","0","","",""
"","psychophysics","147","809691","0.0-2.0-0.48","1np","[""R""]","","","","","","2389","key","m","m","16.67199459459469","912","513","2","0","0","0","1","true","",""
"","psychophysics","148","810703","0.0-2.0-1.48","1np","[""R""]","","","","","","null","key","null","null","16.672372881356644","912","513","2","0","0","0","1","","",""
"","psychophysics","149","811718","0.0-2.0-2.48-0.48","1np","[""R""]","","","","","","null","key","null","null","16.672600000000482","912","513","2","0","0","0","1","","",""
"","psychophysics","150","815610","0.0-2.0-0.49","1np","[""R""]","","","","","","3185","key","z","z","16.816445887446086","912","513","1","1","0","1","0","true","",""
"","psychophysics","151","816622","0.0-2.0-1.49","1np","[""R""]","","","","","","null","key","null","null","16.671186440677573","912","513","1","1","0","1","0","","",""
"","psychophysics","152","817639","0.0-2.0-2.49-0.49","1np","[""R""]","","","","","","null","key","null","null","16.671199999999953","912","513","1","1","0","1","0","","",""
"","psychophysics","153","821402","0.0-2.0-0.50","1np","[""R""]","","","","","","3058","key","m","m","16.672008888889103","912","513","1","0","1","0","1","false","",""
"","psychophysics","154","822414","0.0-2.0-1.50","1np","[""R""]","","","","","","null","key","null","null","16.671716666667876","912","513","1","0","1","0","1","","",""
"","psychophysics","155","823424","0.0-2.0-3.50-0.50","1np","[""R""]","","","","","","null","key","null","null","16.67294915254283","912","513","1","0","1","0","1","","",""
"","psychophysics","156","825666","0.0-2.0-0.51","1np","[""R""]","","","","","","1538","key","m","m","16.671820895522206","912","513","2","1","0","1","0","true","",""
"","psychophysics","157","826675","0.0-2.0-1.51","1np","[""R""]","","","","","","null","key","null","null","16.67216949152634","912","513","2","1","0","1","0","","",""
"","psychophysics","158","827686","0.0-2.0-2.51-0.51","1np","[""R""]","","","","","","null","key","null","null","16.672616666666","912","513","2","1","0","1","0","","",""
"","psychophysics","159","829597","0.0-2.0-0.52","1np","[""R""]","","","","","","1207","key","z","z","16.673210526316165","912","513","1","0","1","0","1","true","",""
"","psychophysics","160","830606","0.0-2.0-1.52","1np","[""R""]","","","","","","null","key","null","null","16.67284745762669","912","513","1","0","1","0","1","","",""
"","psychophysics","161","831622","0.0-2.0-2.52-0.52","1np","[""R""]","","","","","","null","key","null","null","16.672100000000015","912","513","1","0","1","0","1","","",""
"","psychophysics","162","833673","0.0-2.0-0.53","1np","[""R""]","","","","","","1347","key","m","m","16.810115702479138","912","513","1","1","0","0","1","false","",""
"","psychophysics","163","834681","0.0-2.0-1.53","1np","[""R""]","","","","","","null","key","null","null","16.67296666666516","912","513","1","1","0","0","1","","",""
"","psychophysics","164","835694","0.0-2.0-3.53-0.53","1np","[""R""]","","","","","","null","key","null","null","16.67103389830534","912","513","1","1","0","0","1","","",""
"","psychophysics","165","839717","0.0-2.0-0.54","1np","[""R""]","","","","","","3318","key","m","m","16.741379166666594","912","513","1","1","1","1","0","false","",""
"","psychophysics","166","840727","0.0-2.0-1.54","1np","[""R""]","","","","","","null","key","null","null","16.671881355933245","912","513","1","1","1","1","0","","",""
"","psychophysics","167","841744","0.0-2.0-3.54-0.54","1np","[""R""]","","","","","","null","key","null","null","16.6729666666671","912","513","1","1","1","1","0","","",""
"","psychophysics","168","844067","0.0-2.0-0.55","1np","[""R""]","","","","","","1617","key","z","z","16.671719424460058","912","513","1","1","0","1","1","true","",""
"","psychophysics","169","845079","0.0-2.0-1.55","1np","[""R""]","","","","","","null","key","null","null","16.67294915254086","912","513","1","1","0","1","1","","",""
"","psychophysics","170","846095","0.0-2.0-2.55-0.55","1np","[""R""]","","","","","","null","key","null","null","16.672666666666434","912","513","1","1","0","1","1","","",""
"","psychophysics","171","847978","0.0-2.0-0.56","1np","[""R""]","","","","","","1176","key","m","m","16.672348214286362","912","513","2","0","1","1","1","true","",""
"","psychophysics","172","848986","0.0-2.0-1.56","1np","[""R""]","","","","","","null","key","null","null","16.672616666666","912","513","2","0","1","1","1","","",""
"","psychophysics","173","849999","0.0-2.0-2.56-0.56","1np","[""R""]","","","","","","null","key","null","null","16.671644067796247","912","513","2","0","1","1","1","","",""
"","psychophysics","174","852362","0.0-2.0-0.57","1np","[""R""]","","","","","","1659","key","z","z","16.7909857142858","912","513","1","0","0","1","1","true","",""
"","psychophysics","175","853370","0.0-2.0-1.57","1np","[""R""]","","","","","","null","key","null","null","16.672683333333893","912","513","1","0","0","1","1","","",""
"","psychophysics","176","854383","0.0-2.0-2.57-0.57","1np","[""R""]","","","","","","null","key","null","null","16.675762711864326","912","513","1","0","0","1","1","","",""
"","psychophysics","177","857450","0.0-2.0-0.58","1np","[""R""]","","","","","","2362","key","m","m","16.672300546447865","912","513","1","0","1","1","0","false","",""
"","psychophysics","178","858463","0.0-2.0-1.58","1np","[""R""]","","","","","","null","key","null","null","16.672833333333255","912","513","1","0","1","1","0","","",""
"","psychophysics","179","859472","0.0-2.0-3.58-0.58","1np","[""R""]","","","","","","null","key","null","null","16.672199999998945","912","513","1","0","1","1","0","","",""
"","psychophysics","180","862787","0.0-2.0-0.59","1np","[""R""]","","","","","","2604","key","z","z","16.672015228426336","912","513","2","0","0","0","1","false","",""
"","psychophysics","181","863799","0.0-2.0-1.59","1np","[""R""]","","","","","","null","key","null","null","16.673216666665393","912","513","2","0","0","0","1","","",""
"","psychophysics","182","864815","0.0-2.0-3.59-0.59","1np","[""R""]","","","","","","null","key","null","null","16.67271666666687","912","513","2","0","0","0","1","","",""
"","psychophysics","183","867602","0.0-2.0-0.60","1np","[""R""]","","","","","","2083","key","z","z","16.672024096385435","912","513","1","0","0","1","1","true","",""
"","psychophysics","184","868615","0.0-2.0-1.60","1np","[""R""]","","","","","","null","key","null","null","16.672850000000714","912","513","1","0","0","1","1","","",""
"","psychophysics","185","869626","0.0-2.0-2.60-0.60","1np","[""R""]","","","","","","null","key","null","null","16.955457627118204","912","513","1","0","0","1","1","","",""
"","psychophysics","186","872962","0.0-2.0-0.61","1np","[""R""]","","","","","","2629","key","z","z","16.666844221105187","912","513","1","1","0","1","1","true","",""
"","psychophysics","187","873973","0.0-2.0-1.61","1np","[""R""]","","","","","","null","key","null","null","16.671355932203152","912","513","1","1","0","1","1","","",""
"","psychophysics","188","874983","0.0-2.0-2.61-0.61","1np","[""R""]","","","","","","null","key","null","null","16.6709333333342","912","513","1","1","0","1","1","","",""
"","psychophysics","189","877412","0.0-2.0-0.62","1np","[""R""]","","","","","","1722","key","z","z","16.672137931034225","912","513","1","1","1","1","1","true","",""
"","psychophysics","190","878423","0.0-2.0-1.62","1np","[""R""]","","","","","","null","key","null","null","16.671169491526197","912","513","1","1","1","1","1","","",""
"","psychophysics","191","879439","0.0-2.0-2.62-0.62","1np","[""R""]","","","","","","null","key","null","null","16.673083333333487","912","513","1","1","1","1","1","","",""
"","psychophysics","192","883418","0.0-2.0-0.63","1np","[""R""]","","","","","","3272","key","m","m","16.671777310924497","912","513","2","1","0","1","0","true","",""
"","psychophysics","193","884426","0.0-2.0-1.63","1np","[""R""]","","","","","","null","key","null","null","16.67320338982923","912","513","2","1","0","1","0","","",""
"","psychophysics","194","885439","0.0-2.0-2.63-0.63","1np","[""R""]","","","","","","null","key","null","null","16.671916666667677","912","513","2","1","0","1","0","","",""
"","psychophysics","195","889954","0.0-2.0-0.64","1np","[""R""]","","","","","","3810","key","z","z","16.671862962963147","912","513","1","0","1","1","1","true","",""
"","psychophysics","196","890962","0.0-2.0-1.64","1np","[""R""]","","","","","","null","key","null","null","16.673084745763692","912","513","1","0","1","1","1","","",""
"","psychophysics","197","891975","0.0-2.0-2.64-0.64","1np","[""R""]","","","","","","null","key","null","null","16.671866666665302","912","513","1","0","1","1","1","","",""
"","psychophysics","198","894554","0.0-2.0-0.65","1np","[""R""]","","","","","","1875","key","z","z","16.672240259740413","912","513","1","1","1","1","1","true","",""
"","psychophysics","199","895563","0.0-2.0-1.65","1np","[""R""]","","","","","","null","key","null","null","16.671932203389343","912","513","1","1","1","1","1","","",""
"","psychophysics","200","896575","0.0-2.0-2.65-0.65","1np","[""R""]","","","","","","null","key","null","null","16.672499999999612","912","513","1","1","1","1","1","","",""
"","psychophysics","201","899329","0.0-2.0-0.66","1np","[""R""]","","","","","","2049","key","z","z","16.673213414634187","912","513","2","0","0","0","0","false","",""
"","psychophysics","202","900343","0.0-2.0-1.66","1np","[""R""]","","","","","","null","key","null","null","16.67213333333299","912","513","2","0","0","0","0","","",""
"","psychophysics","203","901359","0.0-2.0-3.66-0.66","1np","[""R""]","","","","","","null","key","null","null","16.672600000000482","912","513","2","0","0","0","0","","",""
"","psychophysics","204","905970","0.0-2.0-0.67","1np","[""R""]","","","","","","3906","key","m","m","16.732672727272675","912","513","2","1","0","1","0","true","",""
"","psychophysics","205","906982","0.0-2.0-1.67","1np","[""R""]","","","","","","null","key","null","null","16.670000000000474","912","513","2","1","0","1","0","","",""
"","psychophysics","206","907987","0.0-2.0-2.67-0.67","1np","[""R""]","","","","","","null","key","null","null","16.673250000000312","912","513","2","1","0","1","0","","",""
"","psychophysics","207","910322","0.0-2.0-0.68","1np","[""R""]","","","","","","1627","key","z","z","16.67197122302144","912","513","2","0","1","0","0","false","",""
"","psychophysics","208","911334","0.0-2.0-1.68","1np","[""R""]","","","","","","null","key","null","null","16.672254237287156","912","513","2","0","1","0","0","","",""
"","psychophysics","209","912351","0.0-2.0-3.68-0.68","1np","[""R""]","","","","","","null","key","null","null","16.67070000000143","912","513","2","0","1","0","0","","",""
"","psychophysics","210","914681","0.0-2.0-0.69","1np","[""R""]","","","","","","1626","key","z","z","16.672302158273883","912","513","1","1","1","1","1","true","",""
"","psychophysics","211","915689","0.0-2.0-1.69","1np","[""R""]","","","","","","null","key","null","null","16.67251666666707","912","513","1","1","1","1","1","","",""
"","psychophysics","212","916703","0.0-2.0-2.69-0.69","1np","[""R""]","","","","","","null","key","null","null","16.67184745762655","912","513","1","1","1","1","1","","",""
"","psychophysics","213","920361","0.0-2.0-0.70","1np","[""R""]","","","","","","2955","key","m","m","16.67166666666654","912","513","1","1","0","0","1","false","",""
"","psychophysics","214","921371","0.0-2.0-1.70","1np","[""R""]","","","","","","null","key","null","null","16.671915254237966","912","513","1","1","0","0","1","","",""
"","psychophysics","215","922383","0.0-2.0-3.70-0.70","1np","[""R""]","","","","","","null","key","null","null","16.671833333334266","912","513","1","1","0","0","1","","",""
"","psychophysics","216","927377","0.0-2.0-0.71","1np","[""R""]","","","","","","4289","key","m","m","16.671929765886308","912","513","2","0","1","1","0","true","",""
"","psychophysics","217","928390","0.0-2.0-1.71","1np","[""R""]","","","","","","null","key","null","null","16.672440677966087","912","513","2","0","1","1","0","","",""
"","psychophysics","218","929407","0.0-2.0-2.71-0.71","1np","[""R""]","","","","","","null","key","null","null","16.671866666667242","912","513","2","0","1","1","0","","",""
"","psychophysics","219","934306","0.0-2.0-0.72","1np","[""R""]","","","","","","4195","key","m","m","16.671744027303742","912","513","2","0","1","1","1","true","",""
"","psychophysics","220","935318","0.0-2.0-1.72","1np","[""R""]","","","","","","null","key","null","null","16.672633333333458","912","513","2","0","1","1","1","","",""
"","psychophysics","221","936329","0.0-2.0-2.72-0.72","1np","[""R""]","","","","","","null","key","null","null","16.672850000000714","912","513","2","0","1","1","1","","",""
"","psychophysics","222","940953","0.0-2.0-0.73","1np","[""R""]","","","","","","3915","key","z","z","16.6717463768116","912","513","1","1","0","1","0","true","",""
"","psychophysics","223","941964","0.0-2.0-1.73","1np","[""R""]","","","","","","null","key","null","null","16.65893333333467","912","513","1","1","0","1","0","","",""
"","psychophysics","224","942975","0.0-2.0-2.73-0.73","1np","[""R""]","","","","","","null","key","null","null","16.6725593220336","912","513","1","1","0","1","0","","",""
"","psychophysics","225","947083","0.0-2.0-0.74","1np","[""R""]","","","","","","3402","key","z","z","16.671906504065","912","513","1","0","0","1","0","true","",""
"","psychophysics","226","948096","0.0-2.0-1.74","1np","[""R""]","","","","","","null","key","null","null","16.67225423728913","912","513","1","0","0","1","0","","",""
"","psychophysics","227","949111","0.0-2.0-2.74-0.74","1np","[""R""]","","","","","","null","key","null","null","16.671750000000852","912","513","1","0","0","1","0","","",""
"","psychophysics","228","952009","0.0-2.0-0.75","1np","[""R""]","","","","","","2193","key","m","m","16.672127167630343","912","513","2","1","0","1","1","true","",""
"","psychophysics","229","953017","0.0-2.0-1.75","1np","[""R""]","","","","","","null","key","null","null","16.6728166666658","912","513","2","1","0","1","1","","",""
"","psychophysics","230","954031","0.0-2.0-2.75-0.75","1np","[""R""]","","","","","","null","key","null","null","16.671067796612032","912","513","2","1","0","1","1","","",""
"","psychophysics","231","957577","0.0-2.0-0.76","1np","[""R""]","","","","","","2835","key","m","m","16.67183018867904","912","513","2","0","0","1","1","true","",""
"","psychophysics","232","958585","0.0-2.0-1.76","1np","[""R""]","","","","","","null","key","null","null","16.672199999998945","912","513","2","0","0","1","1","","",""
"","psychophysics","233","959599","0.0-2.0-2.76-0.76","1np","[""R""]","","","","","","null","key","null","null","16.671525423728735","912","513","2","0","0","1","1","","",""
"","psychophysics","234","963073","0.0-2.0-0.77","1np","[""R""]","","","","","","2769","key","m","m","16.671807692307294","912","513","2","0","0","1","0","true","",""
"","psychophysics","235","964084","0.0-2.0-1.77","1np","[""R""]","","","","","","null","key","null","null","16.671864406779896","912","513","2","0","0","1","0","","",""
"","psychophysics","236","965094","0.0-2.0-2.77-0.77","1np","[""R""]","","","","","","null","key","null","null","16.671849999999782","912","513","2","0","0","1","0","","",""
"","psychophysics","237","969793","0.0-2.0-0.78","1np","[""R""]","","","","","","3995","key","m","m","16.67197508896822","912","513","1","0","1","0","1","false","",""
"","psychophysics","238","970802","0.0-2.0-1.78","1np","[""R""]","","","","","","null","key","null","null","16.67176271186376","912","513","1","0","1","0","1","","",""
"","psychophysics","239","971815","0.0-2.0-3.78-0.78","1np","[""R""]","","","","","","null","key","null","null","16.671849999999782","912","513","1","0","1","0","1","","",""
"","psychophysics","240","976161","0.0-2.0-0.79","1np","[""R""]","","","","","","3641","key","m","m","16.672092307692107","912","513","1","1","0","0","1","false","",""
"","psychophysics","241","977171","0.0-2.0-1.79","1np","[""R""]","","","","","","null","key","null","null","16.671305084747058","912","513","1","1","0","0","1","","",""
"","psychophysics","242","978182","0.0-2.0-3.79-0.79","1np","[""R""]","","","","","","null","key","null","null","16.672350000000247","912","513","1","1","0","0","1","","",""
"","psychophysics","243","980553","0.0-2.0-0.80","1np","[""R""]","","","","","","1665","key","m","m","16.671985815602838","912","513","1","0","1","1","0","false","",""
"","psychophysics","244","981566","0.0-2.0-1.80","1np","[""R""]","","","","","","null","key","null","null","16.673000000000076","912","513","1","0","1","1","0","","",""
"","psychophysics","245","982576","0.0-2.0-3.80-0.80","1np","[""R""]","","","","","","null","key","null","null","16.6724166666662","912","513","1","0","1","1","0","","",""
"","psychophysics","246","986433","0.0-2.0-0.81","1np","[""R""]","","","","","","3147","key","m","m","16.67197826086979","912","513","1","1","0","0","0","false","",""
"","psychophysics","247","987441","0.0-2.0-1.81","1np","[""R""]","","","","","","null","key","null","null","16.672932203389482","912","513","1","1","0","0","0","","",""
"","psychophysics","248","988454","0.0-2.0-3.81-0.81","1np","[""R""]","","","","","","null","key","null","null","16.673100000000947","912","513","1","1","0","0","0","","",""
"","psychophysics","249","992947","0.0-2.0-0.82","1np","[""R""]","","","","","","3785","key","z","z","16.67195910780663","912","513","1","0","1","1","1","true","",""
"","psychophysics","250","993958","0.0-2.0-1.82","1np","[""R""]","","","","","","null","key","null","null","16.672305084745226","912","513","1","0","1","1","1","","",""
"","psychophysics","251","994974","0.0-2.0-2.82-0.82","1np","[""R""]","","","","","","null","key","null","null","16.672850000000714","912","513","1","0","1","1","1","","",""
"","psychophysics","252","997537","0.0-2.0-0.83","1np","[""R""]","","","","","","1856","key","z","z","16.6721960784315","912","513","2","0","1","1","0","false","",""
"","psychophysics","253","998544","0.0-2.0-1.83","1np","[""R""]","","","","","","null","key","null","null","16.67220338983106","912","513","2","0","1","1","0","","",""
"","psychophysics","254","999559","0.0-2.0-3.83-0.83","1np","[""R""]","","","","","","null","key","null","null","16.672566666667503","912","513","2","0","1","1","0","","",""
"","psychophysics","255","1002233","0.0-2.0-0.84","1np","[""R""]","","","","","","1968","key","m","m","16.67218750000029","912","513","1","0","0","0","0","false","",""
"","psychophysics","256","1003246","0.0-2.0-1.84","1np","[""R""]","","","","","","null","key","null","null","16.670949152542548","912","513","1","0","0","0","0","","",""
"","psychophysics","257","1004263","0.0-2.0-3.84-0.84","1np","[""R""]","","","","","","null","key","null","null","16.671866666665302","912","513","1","0","0","0","0","","",""
"","psychophysics","258","1007057","0.0-2.0-0.85","1np","[""R""]","","","","","","2090","key","m","m","16.672029940120062","912","513","2","0","1","1","1","true","",""
"","psychophysics","259","1008068","0.0-2.0-1.85","1np","[""R""]","","","","","","null","key","null","null","16.67286666666623","912","513","2","0","1","1","1","","",""
"","psychophysics","260","1009078","0.0-2.0-2.85-0.85","1np","[""R""]","","","","","","null","key","null","null","16.67176271186376","912","513","2","0","1","1","1","","",""
"","psychophysics","261","1011865","0.0-2.0-0.86","1np","[""R""]","","","","","","2079","key","z","z","16.67200000000015","912","513","1","1","1","1","1","true","",""
"","psychophysics","262","1012878","0.0-2.0-1.86","1np","[""R""]","","","","","","null","key","null","null","16.67143333333273","912","513","1","1","1","1","1","","",""
"","psychophysics","263","1013894","0.0-2.0-2.86-0.86","1np","[""R""]","","","","","","null","key","null","null","16.672366666665766","912","513","1","1","1","1","1","","",""
"","psychophysics","264","1020378","0.0-2.0-0.87","1np","[""R""]","","","","","","5778","key","m","m","16.671987113401837","912","513","2","1","0","1","1","true","",""
"","psychophysics","265","1021386","0.0-2.0-1.87","1np","[""R""]","","","","","","null","key","null","null","16.672627118645014","912","513","2","1","0","1","1","","",""
"","psychophysics","266","1022399","0.0-2.0-2.87-0.87","1np","[""R""]","","","","","","null","key","null","null","16.671833333334266","912","513","2","1","0","1","1","","",""
"","psychophysics","267","1024682","0.0-2.0-0.88","1np","[""R""]","","","","","","1579","key","m","m","16.672294117646423","912","513","1","1","0","0","0","false","",""
"","psychophysics","268","1025690","0.0-2.0-1.88","1np","[""R""]","","","","","","null","key","null","null","16.67306666666603","912","513","1","1","0","0","0","","",""
"","psychophysics","269","1026704","0.0-2.0-3.88-0.88","1np","[""R""]","","","","","","null","key","null","null","16.6716271186429","912","513","1","1","0","0","0","","",""
"","psychophysics","270","1028676","0.0-2.0-0.89","1np","[""R""]","","","","","","1267","key","z","z","16.671966101694064","912","513","1","0","0","1","1","true","",""
"","psychophysics","271","1029687","0.0-2.0-1.89","1np","[""R""]","","","","","","null","key","null","null","16.67172881355904","912","513","1","0","0","1","1","","",""
"","psychophysics","272","1030704","0.0-2.0-2.89-0.89","1np","[""R""]","","","","","","null","key","null","null","16.954966101694804","912","513","1","0","0","1","1","","",""
"","psychophysics","273","1033210","0.0-2.0-0.90","1np","[""R""]","","","","","","1801","key","z","z","16.672280000000416","912","513","2","1","1","0","0","false","",""
"","psychophysics","274","1034223","0.0-2.0-1.90","1np","[""R""]","","","","","","null","key","null","null","16.67127118644036","912","513","2","1","1","0","0","","",""
"","psychophysics","275","1035240","0.0-2.0-3.90-0.90","1np","[""R""]","","","","","","null","key","null","null","16.672299999999815","912","513","2","1","1","0","0","","",""
"","psychophysics","276","1037074","0.0-2.0-0.91","1np","[""R""]","","","","","","1130","key","m","m","16.671944954128158","912","513","2","1","1","1","1","true","",""
"","psychophysics","277","1038087","0.0-2.0-1.91","1np","[""R""]","","","","","","null","key","null","null","16.672633333333458","912","513","2","1","1","1","1","","",""
"","psychophysics","278","1039103","0.0-2.0-2.91-0.91","1np","[""R""]","","","","","","null","key","null","null","16.67305000000051","912","513","2","1","1","1","1","","",""
"","psychophysics","279","1041658","0.0-2.0-0.92","1np","[""R""]","","","","","","1849","key","z","z","16.67220394736873","912","513","1","0","1","1","1","true","",""
"","psychophysics","280","1042671","0.0-2.0-1.92","1np","[""R""]","","","","","","null","key","null","null","16.67280000000028","912","513","1","0","1","1","1","","",""
"","psychophysics","281","1043687","0.0-2.0-2.92-0.92","1np","[""R""]","","","","","","null","key","null","null","16.673099999999007","912","513","1","0","1","1","1","","",""
"","psychophysics","282","1045834","0.0-2.0-0.93","1np","[""R""]","","","","","","1443","key","m","m","16.672218749999956","912","513","2","0","1","1","1","true","",""
"","psychophysics","283","1046844","0.0-2.0-1.93","1np","[""R""]","","","","","","null","key","null","null","16.671355932203152","912","513","2","0","1","1","1","","",""
"","psychophysics","284","1047855","0.0-2.0-2.93-0.93","1np","[""R""]","","","","","","null","key","null","null","16.671833333332323","912","513","2","0","1","1","1","","",""
"","psychophysics","285","1049810","0.0-2.0-0.94","1np","[""R""]","","","","","","1249","key","z","z","16.672353448274","912","513","1","0","0","1","1","true","",""
"","psychophysics","286","1050823","0.0-2.0-1.94","1np","[""R""]","","","","","","null","key","null","null","16.67269999999941","912","513","1","0","0","1","1","","",""
"","psychophysics","287","1051839","0.0-2.0-2.94-0.94","1np","[""R""]","","","","","","null","key","null","null","16.672100000001954","912","513","1","0","0","1","1","","",""
"","psychophysics","288","1054025","0.0-2.0-0.95","1np","[""R""]","","","","","","1480","key","z","z","16.67234615384637","912","513","1","1","0","1","0","true","",""
"","psychophysics","289","1055039","0.0-2.0-1.95","1np","[""R""]","","","","","","null","key","null","null","16.67290000000115","912","513","1","1","0","1","0","","",""
"","psychophysics","290","1056063","0.0-2.0-2.95-0.95","1np","[""R""]","","","","","","null","key","null","null","16.672583333333023","912","513","1","1","0","1","0","","",""
"","psychophysics","291","1062069","0.0-2.0-0.96","1np","[""R""]","","","","","","5302","key","z","z","16.671672222221968","912","513","2","0","0","0","0","false","",""
"","psychophysics","292","1063079","0.0-2.0-1.96","1np","[""R""]","","","","","","null","key","null","null","16.671661016949596","912","513","2","0","0","0","0","","",""
"","psychophysics","293","1064095","0.0-2.0-3.96-0.96","1np","[""R""]","","","","","","null","key","null","null","16.67221666666446","912","513","2","0","0","0","0","","",""
"","psychophysics","294","1069457","0.0-2.0-0.97","1np","[""R""]","","","","","","4658","key","z","z","16.671906542056167","912","513","1","1","0","1","0","true","",""
"","psychophysics","295","1070468","0.0-2.0-1.97","1np","[""R""]","","","","","","null","key","null","null","16.672084745761577","912","513","1","1","0","1","0","","",""
"","psychophysics","296","1071479","0.0-2.0-2.97-0.97","1np","[""R""]","","","","","","null","key","null","null","16.671266666667847","912","513","1","1","0","1","0","","",""
"","psychophysics","297","1075602","0.0-2.0-0.98","1np","[""R""]","","","","","","3417","key","m","m","16.67203252032547","912","513","2","1","1","1","0","true","",""
"","psychophysics","298","1076615","0.0-2.0-1.98","1np","[""R""]","","","","","","null","key","null","null","16.672033333332124","912","513","2","1","1","1","0","","",""
"","psychophysics","299","1077634","0.0-2.0-2.98-0.98","1np","[""R""]","","","","","","null","key","null","null","16.67290000000115","912","513","2","1","1","1","0","","",""
"","psychophysics","300","1079865","0.0-2.0-0.99","1np","[""R""]","","","","","","1523","key","z","z","16.67221804511299","912","513","2","0","0","0","0","false","",""
"","psychophysics","301","1080874","0.0-2.0-1.99","1np","[""R""]","","","","","","null","key","null","null","16.672500000001552","912","513","2","0","0","0","0","","",""
"","psychophysics","302","1081887","0.0-2.0-3.99-0.99","1np","[""R""]","","","","","","null","key","null","null","16.67179661016848","912","513","2","0","0","0","0","","",""
"","html-keyboard-response","303","1087890","0.0-2.0-4.99-0.99","1np","[""R""]","","","","","","5997","","","g","","","","","","","","","","<p>You have finished block 1 of 5.<p>You correctly predicted 66% of the races.<p>On the next screen, you will be given a 30 second break. Press the <b>g</b> key to start your break.",""
"","html-keyboard-response","304","1088898","0.0-2.0-4.99-1.99-0.99","1np","[""R""]","","","","","","null","","","null","","","","","","","","","","<p>The experiment will resume in 30 seconds. ",""
"","html-keyboard-response","305","1089902","0.0-2.0-4.99-1.99-1.99","1np","[""R""]","","","","","","null","","","null","","","","","","","","","","<p>The experiment will resume in 29 seconds. ",""
"","html-keyboard-response","306","1090918","0.0-2.0-4.99-1.99-2.99","1np","[""R""]","","","","","","null","","","null","","","","","","","","","","<p>The experiment will resume in 28 seconds. ",""
"","html-keyboard-response","307","1091941","0.0-2.0-4.99-1.99-3.99","1np","[""R""]","","","","","","null","","","null","","","","","","","","","","<p>The experiment will resume in 27 seconds. ",""
"","html-keyboard-response","308","1092959","0.0-2.0-4.99-1.99-4.99","1np","[""R""]","","","","","","null","","","null","","","","","","","","","","<p>The experiment will resume in 26 seconds. ",""
"","html-keyboard-response","309","1093982","0.0-2.0-4.99-1.99-5.99","1np","[""R""]","","","","","","null","","","null","","","","","","","","","","<p>The experiment will resume in 25 seconds. ",""
"","html-keyboard-response","310","1095001","0.0-2.0-4.99-1.99-6.99","1np","[""R""]","","","","","","null","","","null","","","","","","","","","","<p>The experiment will resume in 24 seconds. ",""
"","html-keyboard-response","311","1096009","0.0-2.0-4.99-1.99-7.99","1np","[""R""]","","","","","","null","","","null","","","","","","","","","","<p>The experiment will resume in 23 seconds. ",""
"","html-keyboard-response","312","1097027","0.0-2.0-4.99-1.99-8.99","1np","[""R""]","","","","","","null","","","null","","","","","","","","","","<p>The experiment will resume in 22 seconds. ",""
"","html-keyboard-response","313","1098029","0.0-2.0-4.99-1.99-9.99","1np","[""R""]","","","","","","null","","","null","","","","","","","","","","<p>The experiment will resume in 21 seconds. ",""
"","html-keyboard-response","314","1099041","0.0-2.0-4.99-1.99-10.99","1np","[""R""]","","","","","","null","","","null","","","","","","","","","","<p>The experiment will resume in 20 seconds. ",""
"","html-keyboard-response","315","1100045","0.0-2.0-4.99-1.99-11.99","1np","[""R""]","","","","","","null","","","null","","","","","","","","","","<p>The experiment will resume in 19 seconds. ",""
"","html-keyboard-response","316","1101057","0.0-2.0-4.99-1.99-12.99","1np","[""R""]","","","","","","null","","","null","","","","","","","","","","<p>The experiment will resume in 18 seconds. ",""
"","html-keyboard-response","317","1102069","0.0-2.0-4.99-1.99-13.99","1np","[""R""]","","","","","","null","","","null","","","","","","","","","","<p>The experiment will resume in 17 seconds. ",""
"","html-keyboard-response","318","1103086","0.0-2.0-4.99-1.99-14.99","1np","[""R""]","","","","","","null","","","null","","","","","","","","","","<p>The experiment will resume in 16 seconds. ",""
"","html-keyboard-response","319","1104110","0.0-2.0-4.99-1.99-15.99","1np","[""R""]","","","","","","null","","","null","","","","","","","","","","<p>The experiment will resume in 15 seconds. ",""
"","html-keyboard-response","320","1105131","0.0-2.0-4.99-1.99-16.99","1np","[""R""]","","","","","","null","","","null","","","","","","","","","","<p>The experiment will resume in 14 seconds. ",""
"","html-keyboard-response","321","1106150","0.0-2.0-4.99-1.99-17.99","1np","[""R""]","","","","","","null","","","null","","","","","","","","","","<p>The experiment will resume in 13 seconds. ",""
"","html-keyboard-response","322","1107170","0.0-2.0-4.99-1.99-18.99","1np","[""R""]","","","","","","null","","","null","","","","","","","","","","<p>The experiment will resume in 12 seconds. ",""
"","html-keyboard-response","323","1108181","0.0-2.0-4.99-1.99-19.99","1np","[""R""]","","","","","","null","","","null","","","","","","","","","","<p>The experiment will resume in 11 seconds. ",""
"","html-keyboard-response","324","1109192","0.0-2.0-4.99-1.99-20.99","1np","[""R""]","","","","","","null","","","null","","","","","","","","","","<p>The experiment will resume in 10 seconds. ",""
"","html-keyboard-response","325","1110207","0.0-2.0-4.99-1.99-21.99","1np","[""R""]","","","","","","null","","","null","","","","","","","","","","<p>The experiment will resume in 9 seconds. ",""
"","html-keyboard-response","326","1111220","0.0-2.0-4.99-1.99-22.99","1np","[""R""]","","","","","","null","","","null","","","","","","","","","","<p>The experiment will resume in 8 seconds. ",""
"","html-keyboard-response","327","1112237","0.0-2.0-4.99-1.99-23.99","1np","[""R""]","","","","","","null","","","null","","","","","","","","","","<p>The experiment will resume in 7 seconds. ",""
"","html-keyboard-response","328","1113249","0.0-2.0-4.99-1.99-24.99","1np","[""R""]","","","","","","null","","","null","","","","","","","","","","<p>The experiment will resume in 6 seconds. ",""
"","html-keyboard-response","329","1114268","0.0-2.0-4.99-1.99-25.99","1np","[""R""]","","","","","","null","","","null","","","","","","","","","","<p>The experiment will resume in 5 seconds. ",""
"","html-keyboard-response","330","1115280","0.0-2.0-4.99-1.99-26.99","1np","[""R""]","","","","","","null","","","null","","","","","","","","","","<p>The experiment will resume in 4 seconds. ",""
"","html-keyboard-response","331","1116301","0.0-2.0-4.99-1.99-27.99","1np","[""R""]","","","","","","null","","","null","","","","","","","","","","<p>The experiment will resume in 3 seconds. ",""
"","html-keyboard-response","332","1117321","0.0-2.0-4.99-1.99-28.99","1np","[""R""]","","","","","","null","","","null","","","","","","","","","","<p>The experiment will resume in 2 seconds. ",""
"","html-keyboard-response","333","1118338","0.0-2.0-4.99-1.99-29.99","1np","[""R""]","","","","","","null","","","null","","","","","","","","","","<p>The experiment will resume in 1 seconds. ",""
"","psychophysics","334","1121081","0.0-2.0-0.100","1np","[""R""]","","","","","","2035","key","m","m","16.776650306748717","912","513","1","0","1","1","0","false","",""
"","psychophysics","335","1122095","0.0-2.0-1.100","1np","[""R""]","","","","","","null","key","null","null","16.672850000000714","912","513","1","0","1","1","0","","",""
"","psychophysics","336","1123110","0.0-2.0-3.100-0.100","1np","[""R""]","","","","","","null","key","null","null","16.672583333333023","912","513","1","0","1","1","0","","",""
"","psychophysics","337","1124722","0.0-2.0-0.101","1np","[""R""]","","","","","","905","key","z","z","16.672364583333547","912","513","1","1","1","1","1","true","",""
"","psychophysics","338","1125734","0.0-2.0-1.101","1np","[""R""]","","","","","","null","key","null","null","16.672101694916897","912","513","1","1","1","1","1","","",""
"","psychophysics","339","1126750","0.0-2.0-2.101-0.101","1np","[""R""]","","","","","","null","key","null","null","16.67069999999755","912","513","1","1","1","1","1","","",""
"","psychophysics","340","1128761","0.0-2.0-0.102","1np","[""R""]","","","","","","1305","key","z","z","16.67223333333386","912","513","2","1","0","0","0","false","",""
"","psychophysics","341","1129769","0.0-2.0-1.102","1np","[""R""]","","","","","","null","key","null","null","16.673169491524508","912","513","2","1","0","0","0","","",""
"","psychophysics","342","1130782","0.0-2.0-3.102-0.102","1np","[""R""]","","","","","","null","key","null","null","16.672199999998945","912","513","2","1","0","0","0","","",""
"","psychophysics","343","1132329","0.0-2.0-0.103","1np","[""R""]","","","","","","843","key","z","z","16.672065217389584","912","513","1","0","1","1","1","true","",""
"","psychophysics","344","1133336","0.0-2.0-1.103","1np","[""R""]","","","","","","null","key","null","null","16.67286440678004","912","513","1","0","1","1","1","","",""
"","psychophysics","345","1134351","0.0-2.0-2.103-0.103","1np","[""R""]","","","","","","null","key","null","null","16.673283333331348","912","513","1","0","1","1","1","","",""
"","psychophysics","346","1136065","0.0-2.0-0.104","1np","[""R""]","","","","","","1007","key","m","m","16.6719509803932","912","513","2","1","1","0","1","true","",""
"","psychophysics","347","1137075","0.0-2.0-1.104","1np","[""R""]","","","","","","null","key","null","null","16.672016666666604","912","513","2","1","1","0","1","","",""
"","psychophysics","348","1138086","0.0-2.0-2.104-0.104","1np","[""R""]","","","","","","null","key","null","null","16.67172881355904","912","513","2","1","1","0","1","","",""
"","psychophysics","349","1139729","0.0-2.0-0.105","1np","[""R""]","","","","","","936","key","m","m","16.671653061226124","912","513","2","0","1","0","1","true","",""
"","psychophysics","350","1140739","0.0-2.0-1.105","1np","[""R""]","","","","","","null","key","null","null","16.671881355933245","912","513","2","0","1","0","1","","",""
"","psychophysics","351","1141751","0.0-2.0-2.105-0.105","1np","[""R""]","","","","","","null","key","null","null","16.670533333334607","912","513","2","0","1","0","1","","",""
"","psychophysics","352","1143617","0.0-2.0-0.106","1np","[""R""]","","","","","","1161","key","z","z","16.672549549548947","912","513","1","1","1","1","1","true","",""
"","psychophysics","353","1144627","0.0-2.0-1.106","1np","[""R""]","","","","","","null","key","null","null","16.673216666665393","912","513","1","1","1","1","1","","",""
"","psychophysics","354","1145639","0.0-2.0-2.106-0.106","1np","[""R""]","","","","","","null","key","null","null","16.671169491524225","912","513","1","1","1","1","1","","",""
"","psychophysics","355","1147442","0.0-2.0-0.107","1np","[""R""]","","","","","","1096","key","m","m","16.672168224299256","912","513","2","0","1","1","1","true","",""
"","psychophysics","356","1148455","0.0-2.0-1.107","1np","[""R""]","","","","","","null","key","null","null","16.672483333332153","912","513","2","0","1","1","1","","",""
"","psychophysics","357","1149471","0.0-2.0-2.107-0.107","1np","[""R""]","","","","","","null","key","null","null","16.6733666666667","912","513","2","0","1","1","1","","",""
"","psychophysics","358","1151457","0.0-2.0-0.108","1np","[""R""]","","","","","","1282","key","m","m","16.67229661016954","912","513","2","0","0","1","1","true","",""
"","psychophysics","359","1152471","0.0-2.0-1.108","1np","[""R""]","","","","","","null","key","null","null","16.67288333333563","912","513","2","0","0","1","1","","",""
"","psychophysics","360","1153487","0.0-2.0-2.108-0.108","1np","[""R""]","","","","","","null","key","null","null","16.673250000000312","912","513","2","0","0","1","1","","",""
"","psychophysics","361","1155825","0.0-2.0-0.109","1np","[""R""]","","","","","","1632","key","z","z","16.672431654677048","912","513","2","1","1","0","1","false","",""
"","psychophysics","362","1156839","0.0-2.0-1.109","1np","[""R""]","","","","","","null","key","null","null","16.673166666664958","912","513","2","1","1","0","1","","",""
"","psychophysics","363","1157848","0.0-2.0-3.109-0.109","1np","[""R""]","","","","","","null","key","null","null","16.671633333332526","912","513","2","1","1","0","1","","",""
"","psychophysics","364","1160009","0.0-2.0-0.110","1np","[""R""]","","","","","","1450","key","z","z","16.67205468750035","912","513","1","1","1","1","1","true","",""
"","psychophysics","365","1161022","0.0-2.0-1.110","1np","[""R""]","","","","","","null","key","null","null","16.673000000002016","912","513","1","1","1","1","1","","",""
"","psychophysics","366","1162033","0.0-2.0-2.110-0.110","1np","[""R""]","","","","","","null","key","null","null","16.672199999998945","912","513","1","1","1","1","1","","",""
"","psychophysics","367","1164425","0.0-2.0-0.111","1np","[""R""]","","","","","","1682","key","m","m","16.671464788732383","912","513","1","1","0","0","0","false","",""
"","psychophysics","368","1165434","0.0-2.0-1.111","1np","[""R""]","","","","","","null","key","null","null","16.672549999998107","912","513","1","1","0","0","0","","",""
"","psychophysics","369","1166446","0.0-2.0-3.111-0.111","1np","[""R""]","","","","","","null","key","null","null","16.67323728813395","912","513","1","1","0","0","0","","",""
"","psychophysics","370","1169113","0.0-2.0-0.112","1np","[""R""]","","","","","","1962","key","m","m","16.672207547168675","912","513","2","0","1","1","1","true","",""
"","psychophysics","371","1170127","0.0-2.0-1.112","1np","[""R""]","","","","","","null","key","null","null","16.671749999998912","912","513","2","0","1","1","1","","",""
"","psychophysics","372","1171136","0.0-2.0-2.112-0.112","1np","[""R""]","","","","","","null","key","null","null","16.672733333334328","912","513","2","0","1","1","1","","",""
"","psychophysics","373","1174113","0.0-2.0-0.113","1np","[""R""]","","","","","","2267","key","z","z","16.671999999999443","912","513","1","1","1","0","1","true","",""
"","psychophysics","374","1175121","0.0-2.0-1.113","1np","[""R""]","","","","","","null","key","null","null","16.6729666666671","912","513","1","1","1","0","1","","",""
"","psychophysics","375","1176133","0.0-2.0-2.113-0.113","1np","[""R""]","","","","","","null","key","null","null","16.671491525424013","912","513","1","1","1","0","1","","",""
"","psychophysics","376","1178761","0.0-2.0-0.114","1np","[""R""]","","","","","","1923","key","m","m","16.672229299363295","912","513","2","0","0","0","1","true","",""
"","psychophysics","377","1179771","0.0-2.0-1.114","1np","[""R""]","","","","","","null","key","null","null","16.67280000000028","912","513","2","0","0","0","1","","",""
"","psychophysics","378","1180783","0.0-2.0-2.114-0.114","1np","[""R""]","","","","","","null","key","null","null","16.67244067796411","912","513","2","0","0","0","1","","",""
"","psychophysics","379","1182977","0.0-2.0-0.115","1np","[""R""]","","","","","","1488","key","m","m","16.672381679390607","912","513","1","0","0","0","0","false","",""
"","psychophysics","380","1183986","0.0-2.0-1.115","1np","[""R""]","","","","","","null","key","null","null","16.671661016949596","912","513","1","0","0","0","0","","",""
"","psychophysics","381","1184998","0.0-2.0-3.115-0.115","1np","[""R""]","","","","","","null","key","null","null","16.67186666666918","912","513","1","0","0","0","0","","",""
"","psychophysics","382","1187545","0.0-2.0-0.116","1np","[""R""]","","","","","","1842","key","m","m","16.67224342105175","912","513","2","1","1","0","1","true","",""
"","psychophysics","383","1188554","0.0-2.0-1.116","1np","[""R""]","","","","","","null","key","null","null","16.672237288135783","912","513","2","1","1","0","1","","",""
"","psychophysics","384","1189567","0.0-2.0-2.116-0.116","1np","[""R""]","","","","","","null","key","null","null","16.671900000000218","912","513","2","1","1","0","1","","",""
"","psychophysics","385","1192713","0.0-2.0-0.117","1np","[""R""]","","","","","","2442","key","z","z","16.672117021275398","912","513","1","1","0","1","1","true","",""
"","psychophysics","386","1193722","0.0-2.0-1.117","1np","[""R""]","","","","","","null","key","null","null","16.67127118644036","912","513","1","1","0","1","1","","",""
"","psychophysics","387","1194735","0.0-2.0-2.117-0.117","1np","[""R""]","","","","","","null","key","null","null","16.672349999996367","912","513","1","1","0","1","1","","",""
"","psychophysics","388","1197249","0.0-2.0-0.118","1np","[""R""]","","","","","","1810","key","m","m","16.672126666667562","912","513","2","0","1","1","1","true","",""
"","psychophysics","389","1198257","0.0-2.0-1.118","1np","[""R""]","","","","","","null","key","null","null","16.67296610169618","912","513","2","0","1","1","1","","",""
"","psychophysics","390","1199270","0.0-2.0-2.118-0.118","1np","[""R""]","","","","","","null","key","null","null","16.67223333333386","912","513","2","0","1","1","1","","",""
"","psychophysics","391","1201212","0.0-2.0-0.119","1np","[""R""]","","","","","","1238","key","z","z","16.672715517240658","912","513","1","0","1","1","1","true","",""
"","psychophysics","392","1202223","0.0-2.0-1.119","1np","[""R""]","","","","","","null","key","null","null","16.671525423726763","912","513","1","0","1","1","1","","",""
"","psychophysics","393","1203239","0.0-2.0-2.119-0.119","1np","[""R""]","","","","","","null","key","null","null","16.67306666666797","912","513","1","0","1","1","1","","",""
"","psychophysics","394","1205147","0.0-2.0-0.120","1np","[""R""]","","","","","","1201","key","z","z","16.672368421051814","912","513","1","1","1","1","1","true","",""
"","psychophysics","395","1206158","0.0-2.0-1.120","1np","[""R""]","","","","","","null","key","null","null","16.671101694914782","912","513","1","1","1","1","1","","",""
"","psychophysics","396","1207175","0.0-2.0-2.120-0.120","1np","[""R""]","","","","","","null","key","null","null","16.672566666663624","912","513","1","1","1","1","1","","",""
"","psychophysics","397","1208937","0.0-2.0-0.121","1np","[""R""]","","","","","","1056","key","z","z","16.672161904762365","912","513","1","1","0","1","1","true","",""
"","psychophysics","398","1209947","0.0-2.0-1.121","1np","[""R""]","","","","","","null","key","null","null","16.672299999999815","912","513","1","1","0","1","1","","",""
"","psychophysics","399","1210959","0.0-2.0-2.121-0.121","1np","[""R""]","","","","","","null","key","null","null","16.67142372881457","912","513","1","1","0","1","1","","",""
"","psychophysics","400","1212466","0.0-2.0-0.122","1np","[""R""]","","","","","","801","key","z","z","16.672077777777385","912","513","1","1","0","0","1","true","",""
"","psychophysics","401","1213478","0.0-2.0-1.122","1np","[""R""]","","","","","","null","key","null","null","16.67179661016848","912","513","1","1","0","0","1","","",""
"","psychophysics","402","1214495","0.0-2.0-2.122-0.122","1np","[""R""]","","","","","","null","key","null","null","16.67158333333597","912","513","1","1","0","0","1","","",""
"","psychophysics","403","1216057","0.0-2.0-0.123","1np","[""R""]","","","","","","857","key","m","m","16.672279569893696","912","513","2","0","1","0","1","true","",""
"","psychophysics","404","1217066","0.0-2.0-1.123","1np","[""R""]","","","","","","null","key","null","null","16.673083333333487","912","513","2","0","1","0","1","","",""
"","psychophysics","405","1218078","0.0-2.0-2.123-0.123","1np","[""R""]","","","","","","null","key","null","null","16.671508474575386","912","513","2","0","1","0","1","","",""
"","psychophysics","406","1220137","0.0-2.0-0.124","1np","[""R""]","","","","","","1353","key","z","z","16.672341463415375","912","513","1","0","1","1","1","true","",""
"","psychophysics","407","1221147","0.0-2.0-1.124","1np","[""R""]","","","","","","null","key","null","null","16.67201694915213","912","513","1","0","1","1","1","","",""
"","psychophysics","408","1222158","0.0-2.0-2.124-0.124","1np","[""R""]","","","","","","null","key","null","null","16.67288333333563","912","513","1","0","1","1","1","","",""
"","psychophysics","409","1223993","0.0-2.0-0.125","1np","[""R""]","","","","","","1130","key","m","m","16.67222935779644","912","513","2","0","1","1","1","true","",""
"","psychophysics","410","1225002","0.0-2.0-1.125","1np","[""R""]","","","","","","null","key","null","null","16.67271666666493","912","513","2","0","1","1","1","","",""
"","psychophysics","411","1226014","0.0-2.0-2.125-0.125","1np","[""R""]","","","","","","null","key","null","null","16.67189830508462","912","513","2","0","1","1","1","","",""
"","psychophysics","412","1228033","0.0-2.0-0.126","1np","[""R""]","","","","","","1313","key","z","z","16.672466666666637","912","513","2","0","0","0","0","false","",""
"","psychophysics","413","1229047","0.0-2.0-1.126","1np","[""R""]","","","","","","null","key","null","null","16.673383333332215","912","513","2","0","0","0","0","","",""
"","psychophysics","414","1230064","0.0-2.0-3.126-0.126","1np","[""R""]","","","","","","null","key","null","null","16.67271666666493","912","513","2","0","0","0","0","","",""
"","psychophysics","415","1232572","0.0-2.0-0.127","1np","[""R""]","","","","","","1805","key","z","z","16.672206666666703","912","513","1","0","0","0","0","true","",""
"","psychophysics","416","1233582","0.0-2.0-1.127","1np","[""R""]","","","","","","null","key","null","null","16.671491525424013","912","513","1","0","0","0","0","","",""
"","psychophysics","417","1234598","0.0-2.0-2.127-0.127","1np","[""R""]","","","","","","null","key","null","null","16.67251666666707","912","513","1","0","0","0","0","","",""
"","psychophysics","418","1238065","0.0-2.0-0.128","1np","[""R""]","","","","","","2759","key","m","m","16.672222222222896","912","513","2","1","0","1","0","true","",""
"","psychophysics","419","1239073","0.0-2.0-1.128","1np","[""R""]","","","","","","null","key","null","null","16.67288333333175","912","513","2","1","0","1","0","","",""
"","psychophysics","420","1240086","0.0-2.0-2.128-0.128","1np","[""R""]","","","","","","null","key","null","null","16.67215254237102","912","513","2","1","0","1","0","","",""
"","psychophysics","421","1242161","0.0-2.0-0.129","1np","[""R""]","","","","","","1370","key","z","z","16.672177419353712","912","513","1","1","1","1","1","true","",""
"","psychophysics","422","1243171","0.0-2.0-1.129","1np","[""R""]","","","","","","null","key","null","null","16.67184745762655","912","513","1","1","1","1","1","","",""
"","psychophysics","423","1244183","0.0-2.0-2.129-0.129","1np","[""R""]","","","","","","null","key","null","null","16.67231666666921","912","513","1","1","1","1","1","","",""
"","psychophysics","424","1246977","0.0-2.0-0.130","1np","[""R""]","","","","","","2090","key","z","z","16.67226946107837","912","513","2","0","0","1","0","false","",""
"","psychophysics","425","1247989","0.0-2.0-1.130","1np","[""R""]","","","","","","null","key","null","null","16.671593220340153","912","513","2","0","0","1","0","","",""
"","psychophysics","426","1248999","0.0-2.0-3.130-0.130","1np","[""R""]","","","","","","null","key","null","null","16.67176666666831","912","513","2","0","0","1","0","","",""
"","psychophysics","427","1251945","0.0-2.0-0.131","1np","[""R""]","","","","","","2243","key","m","m","16.672340909091872","912","513","1","0","0","1","0","false","",""
"","psychophysics","428","1252957","0.0-2.0-1.131","1np","[""R""]","","","","","","null","key","null","null","16.6706779661028","912","513","1","0","0","1","0","","",""
"","psychophysics","429","1253966","0.0-2.0-3.131-0.131","1np","[""R""]","","","","","","null","key","null","null","16.6724166666662","912","513","1","0","0","1","0","","",""
"","psychophysics","430","1256066","0.0-2.0-0.132","1np","[""R""]","","","","","","1395","key","z","z","16.67214399999939","912","513","2","0","1","1","0","false","",""
"","psychophysics","431","1257079","0.0-2.0-1.132","1np","[""R""]","","","","","","null","key","null","null","16.67204999999764","912","513","2","0","1","1","0","","",""
"","psychophysics","432","1258092","0.0-2.0-3.132-0.132","1np","[""R""]","","","","","","null","key","null","null","16.671220338982295","912","513","2","0","1","1","0","","",""
"","psychophysics","433","1261881","0.0-2.0-0.133","1np","[""R""]","","","","","","3085","key","m","m","16.671850220264357","912","513","1","1","1","0","1","false","",""
"","psychophysics","434","1262893","0.0-2.0-1.133","1np","[""R""]","","","","","","null","key","null","null","16.67218644068166","912","513","1","1","1","0","1","","",""
"","psychophysics","435","1263910","0.0-2.0-3.133-0.133","1np","[""R""]","","","","","","null","key","null","null","16.671199999998013","912","513","1","1","1","0","1","","",""
"","psychophysics","436","1266144","0.0-2.0-0.134","1np","[""R""]","","","","","","1530","key","z","z","16.672120300751825","912","513","1","1","1","1","1","true","",""
"","psychophysics","437","1267158","0.0-2.0-1.134","1np","[""R""]","","","","","","null","key","null","null","16.67280000000028","912","513","1","1","1","1","1","","",""
"","psychophysics","438","1268174","0.0-2.0-2.134-0.134","1np","[""R""]","","","","","","null","key","null","null","16.67298333333262","912","513","1","1","1","1","1","","",""
"","psychophysics","439","1271168","0.0-2.0-0.135","1np","[""R""]","","","","","","2290","key","m","m","16.67206145251331","912","513","2","0","1","1","1","true","",""
"","psychophysics","440","1272179","0.0-2.0-1.135","1np","[""R""]","","","","","","null","key","null","null","16.671491525424013","912","513","2","0","1","1","1","","",""
"","psychophysics","441","1273190","0.0-2.0-2.135-0.135","1np","[""R""]","","","","","","null","key","null","null","16.673400000001614","912","513","2","0","1","1","1","","",""
"","psychophysics","442","1275520","0.0-2.0-0.136","1np","[""R""]","","","","","","1626","key","m","m","16.67226618705083","912","513","2","1","1","1","1","true","",""
"","psychophysics","443","1276531","0.0-2.0-1.136","1np","[""R""]","","","","","","null","key","null","null","16.671677966104916","912","513","2","1","1","1","1","","",""
"","psychophysics","444","1277542","0.0-2.0-2.136-0.136","1np","[""R""]","","","","","","null","key","null","null","16.671766666664432","912","513","2","1","1","1","1","","",""
"","psychophysics","445","1279970","0.0-2.0-0.137","1np","[""R""]","","","","","","1723","key","z","z","16.67257241379341","912","513","1","0","1","1","1","true","",""
"","psychophysics","446","1280982","0.0-2.0-1.137","1np","[""R""]","","","","","","null","key","null","null","16.672779661015277","912","513","1","0","1","1","1","","",""
"","psychophysics","447","1281998","0.0-2.0-2.137-0.137","1np","[""R""]","","","","","","null","key","null","null","16.67150000000062","912","513","1","0","1","1","1","","",""
"","psychophysics","448","1285972","0.0-2.0-0.138","1np","[""R""]","","","","","","3269","key","m","m","16.672088235293852","912","513","1","1","0","0","0","false","",""
"","psychophysics","449","1286983","0.0-2.0-1.138","1np","[""R""]","","","","","","null","key","null","null","16.673915254236277","912","513","1","1","0","0","0","","",""
"","psychophysics","450","1287998","0.0-2.0-3.138-0.138","1np","[""R""]","","","","","","null","key","null","null","16.673083333333487","912","513","1","1","0","0","0","","",""
"","psychophysics","451","1290000","0.0-2.0-0.139","1np","[""R""]","","","","","","1295","key","m","m","16.672445378150837","912","513","1","0","1","1","0","false","",""
"","psychophysics","452","1291014","0.0-2.0-1.139","1np","[""R""]","","","","","","null","key","null","null","16.67278333333476","912","513","1","0","1","1","0","","",""
"","psychophysics","453","1292023","0.0-2.0-3.139-0.139","1np","[""R""]","","","","","","null","key","null","null","16.673283333335227","912","513","1","0","1","1","0","","",""
"","psychophysics","454","1294008","0.0-2.0-0.140","1np","[""R""]","","","","","","1274","key","m","m","16.67177966101711","912","513","1","0","0","1","1","false","",""
"","psychophysics","455","1295020","0.0-2.0-1.140","1np","[""R""]","","","","","","null","key","null","null","16.671949152542688","912","513","1","0","0","1","1","","",""
"","psychophysics","456","1296030","0.0-2.0-3.140-0.140","1np","[""R""]","","","","","","null","key","null","null","16.671649999998046","912","513","1","0","0","1","1","","",""
"","psychophysics","457","1299736","0.0-2.0-0.141","1np","[""R""]","","","","","","3002","key","z","z","16.670131221719135","912","513","2","0","0","1","0","false","",""
"","psychophysics","458","1300750","0.0-2.0-1.141","1np","[""R""]","","","","","","null","key","null","null","16.671666666663562","912","513","2","0","0","1","0","","",""
"","psychophysics","459","1301759","0.0-2.0-3.141-0.141","1np","[""R""]","","","","","","null","key","null","null","16.672850000000714","912","513","2","0","0","1","0","","",""
"","psychophysics","460","1305400","0.0-2.0-0.142","1np","[""R""]","","","","","","2930","key","m","m","16.67197695852489","912","513","2","0","1","1","1","true","",""
"","psychophysics","461","1306410","0.0-2.0-1.142","1np","[""R""]","","","","","","null","key","null","null","16.672533333332588","912","513","2","0","1","1","1","","",""
"","psychophysics","462","1307423","0.0-2.0-2.142-0.142","1np","[""R""]","","","","","","null","key","null","null","16.670864406779756","912","513","2","0","1","1","1","","",""
"","psychophysics","463","1309288","0.0-2.0-0.143","1np","[""R""]","","","","","","1160","key","m","m","16.672144144144212","912","513","2","1","1","1","1","true","",""
"","psychophysics","464","1310302","0.0-2.0-1.143","1np","[""R""]","","","","","","null","key","null","null","16.67271666666881","912","513","2","1","1","1","1","","",""
"","psychophysics","465","1311312","0.0-2.0-2.143-0.143","1np","[""R""]","","","","","","null","key","null","null","16.672350000000247","912","513","2","1","1","1","1","","",""
"","psychophysics","466","1313147","0.0-2.0-0.144","1np","[""R""]","","","","","","1125","key","z","z","16.671559633027094","912","513","1","0","0","1","1","true","",""
"","psychophysics","467","1314158","0.0-2.0-1.144","1np","[""R""]","","","","","","null","key","null","null","16.67237288135467","912","513","1","0","0","1","1","","",""
"","psychophysics","468","1315174","0.0-2.0-2.144-0.144","1np","[""R""]","","","","","","null","key","null","null","16.67271666666881","912","513","1","0","0","1","1","","",""
"","psychophysics","469","1317164","0.0-2.0-0.145","1np","[""R""]","","","","","","1280","key","z","z","16.67210084033598","912","513","2","0","1","0","0","false","",""
"","psychophysics","470","1318175","0.0-2.0-1.145","1np","[""R""]","","","","","","null","key","null","null","16.671084745763405","912","513","2","0","1","0","0","","",""
"","psychophysics","471","1319191","0.0-2.0-3.145-0.145","1np","[""R""]","","","","","","null","key","null","null","16.673099999999007","912","513","2","0","1","0","0","","",""
"","psychophysics","472","1321161","0.0-2.0-0.146","1np","[""R""]","","","","","","1266","key","m","m","16.672478632478075","912","513","2","1","0","1","1","true","",""
"","psychophysics","473","1322174","0.0-2.0-1.146","1np","[""R""]","","","","","","null","key","null","null","16.66994999999879","912","513","2","1","0","1","1","","",""
"","psychophysics","474","1323191","0.0-2.0-2.146-0.146","1np","[""R""]","","","","","","null","key","null","null","16.67278333333476","912","513","2","1","0","1","1","","",""
"","psychophysics","475","1325169","0.0-2.0-0.147","1np","[""R""]","","","","","","1274","key","z","z","16.671906779660308","912","513","1","0","1","1","1","true","",""
"","psychophysics","476","1326180","0.0-2.0-1.147","1np","[""R""]","","","","","","null","key","null","null","16.672152542374963","912","513","1","0","1","1","1","","",""
"","psychophysics","477","1327190","0.0-2.0-2.147-0.147","1np","[""R""]","","","","","","null","key","null","null","16.67143333333467","912","513","1","0","1","1","1","","",""
"","psychophysics","478","1328993","0.0-2.0-0.148","1np","[""R""]","","","","","","1098","key","m","m","16.672560747662803","912","513","1","0","1","1","0","false","",""
"","psychophysics","479","1330001","0.0-2.0-1.148","1np","[""R""]","","","","","","null","key","null","null","16.67286666666623","912","513","1","0","1","1","0","","",""
"","psychophysics","480","1331015","0.0-2.0-3.148-0.148","1np","[""R""]","","","","","","null","key","null","null","16.672864406776092","912","513","1","0","1","1","0","","",""
"","psychophysics","481","1334761","0.0-2.0-0.149","1np","[""R""]","","","","","","3042","key","m","m","16.671866071429186","912","513","2","0","0","1","1","true","",""
"","psychophysics","482","1335770","0.0-2.0-1.149","1np","[""R""]","","","","","","null","key","null","null","16.671733333333396","912","513","2","0","0","1","1","","",""
"","psychophysics","483","1336783","0.0-2.0-2.149-0.149","1np","[""R""]","","","","","","null","key","null","null","16.671932203391314","912","513","2","0","0","1","1","","",""
"","psychophysics","484","1339505","0.0-2.0-0.150","1np","[""R""]","","","","","","2017","key","z","z","16.671963190184222","912","513","2","1","0","0","1","false","",""
"","psychophysics","485","1340518","0.0-2.0-1.150","1np","[""R""]","","","","","","null","key","null","null","16.67179661016848","912","513","2","1","0","0","1","","",""
"","psychophysics","486","1341527","0.0-2.0-3.150-0.150","1np","[""R""]","","","","","","null","key","null","null","16.67178333333383","912","513","2","1","0","0","1","","",""
"","psychophysics","487","1343169","0.0-2.0-0.151","1np","[""R""]","","","","","","938","key","m","m","16.67223711340141","912","513","2","1","1","1","1","true","",""
"","psychophysics","488","1344183","0.0-2.0-1.151","1np","[""R""]","","","","","","null","key","null","null","16.67261666666406","912","513","2","1","1","1","1","","",""
"","psychophysics","489","1345199","0.0-2.0-2.151-0.151","1np","[""R""]","","","","","","null","key","null","null","16.67288333333563","912","513","2","1","1","1","1","","",""
"","psychophysics","490","1347513","0.0-2.0-0.152","1np","[""R""]","","","","","","1610","key","z","z","16.67226811594235","912","513","1","0","1","0","1","true","",""
"","psychophysics","491","1348520","0.0-2.0-1.152","1np","[""R""]","","","","","","null","key","null","null","16.672932203389482","912","513","1","0","1","0","1","","",""
"","psychophysics","492","1349534","0.0-2.0-2.152-0.152","1np","[""R""]","","","","","","null","key","null","null","16.67206666666704","912","513","1","0","1","0","1","","",""
"","psychophysics","493","1352865","0.0-2.0-0.153","1np","[""R""]","","","","","","2623","key","m","m","16.672150753768413","912","513","2","0","0","1","1","true","",""
"","psychophysics","494","1353872","0.0-2.0-1.153","1np","[""R""]","","","","","","null","key","null","null","16.673016949154245","912","513","2","0","0","1","1","","",""
"","psychophysics","495","1354887","0.0-2.0-2.153-0.153","1np","[""R""]","","","","","","null","key","null","null","16.671766666664432","912","513","2","0","0","1","1","","",""
"","psychophysics","496","1356769","0.0-2.0-0.154","1np","[""R""]","","","","","","1175","key","m","m","16.672419642857026","912","513","2","0","0","1","1","true","",""
"","psychophysics","497","1357777","0.0-2.0-1.154","1np","[""R""]","","","","","","null","key","null","null","16.67280000000028","912","513","2","0","0","1","1","","",""
"","psychophysics","498","1358790","0.0-2.0-2.154-0.154","1np","[""R""]","","","","","","null","key","null","null","16.671983050845437","912","513","2","0","0","1","1","","",""
"","psychophysics","499","1360785","0.0-2.0-0.155","1np","[""R""]","","","","","","1290","key","m","m","16.67169747899185","912","513","2","1","0","1","1","true","",""
"","psychophysics","500","1361795","0.0-2.0-1.155","1np","[""R""]","","","","","","null","key","null","null","16.67316666666884","912","513","2","1","0","1","1","","",""
"","psychophysics","501","1362808","0.0-2.0-2.155-0.155","1np","[""R""]","","","","","","null","key","null","null","16.67177966101711","912","513","2","1","0","1","1","","",""
"","psychophysics","502","1364833","0.0-2.0-0.156","1np","[""R""]","","","","","","1321","key","z","z","16.671892561982503","912","513","2","0","0","0","0","false","",""
"","psychophysics","503","1365842","0.0-2.0-1.156","1np","[""R""]","","","","","","null","key","null","null","16.671830508475175","912","513","2","0","0","0","0","","",""
"","psychophysics","504","1366854","0.0-2.0-3.156-0.156","1np","[""R""]","","","","","","null","key","null","null","16.671833333334266","912","513","2","0","0","0","0","","",""
"","psychophysics","505","1369148","0.0-2.0-0.157","1np","[""R""]","","","","","","1588","key","m","m","16.672248175182467","912","513","1","1","0","0","1","false","",""
"","psychophysics","506","1370158","0.0-2.0-1.157","1np","[""R""]","","","","","","null","key","null","null","16.671966101694064","912","513","1","1","0","0","1","","",""
"","psychophysics","507","1371175","0.0-2.0-3.157-0.157","1np","[""R""]","","","","","","null","key","null","null","16.67269999999941","912","513","1","1","0","0","1","","",""
"","psychophysics","508","1373857","0.0-2.0-0.158","1np","[""R""]","","","","","","1975","key","m","m","16.67219374999986","912","513","2","1","1","1","1","true","",""
"","psychophysics","509","1374865","0.0-2.0-1.158","1np","[""R""]","","","","","","null","key","null","null","16.672833333335195","912","513","2","1","1","1","1","","",""
"","psychophysics","510","1375879","0.0-2.0-2.158-0.158","1np","[""R""]","","","","","","null","key","null","null","16.67211864406827","912","513","2","1","1","1","1","","",""
"","psychophysics","511","1378100","0.0-2.0-0.159","1np","[""R""]","","","","","","1517","key","z","z","16.671406015037746","912","513","1","0","1","1","1","true","",""
"","psychophysics","512","1379110","0.0-2.0-1.159","1np","[""R""]","","","","","","null","key","null","null","16.672355932203295","912","513","1","0","1","1","1","","",""
"","psychophysics","513","1380126","0.0-2.0-2.159-0.159","1np","[""R""]","","","","","","null","key","null","null","16.672766666665364","912","513","1","0","1","1","1","","",""
"","psychophysics","514","1381978","0.0-2.0-0.160","1np","[""R""]","","","","","","1148","key","z","z","16.67245454545429","912","513","1","1","0","1","1","true","",""
"","psychophysics","515","1382990","0.0-2.0-1.160","1np","[""R""]","","","","","","null","key","null","null","16.67271666666493","912","513","1","1","0","1","1","","",""
"","psychophysics","516","1384001","0.0-2.0-2.160-0.160","1np","[""R""]","","","","","","null","key","null","null","16.673083333333487","912","513","1","1","0","1","1","","",""
"","psychophysics","517","1386219","0.0-2.0-0.161","1np","[""R""]","","","","","","1509","key","m","m","16.67183333333356","912","513","1","0","1","1","0","false","",""
"","psychophysics","518","1387232","0.0-2.0-1.161","1np","[""R""]","","","","","","null","key","null","null","16.67174576271041","912","513","1","0","1","1","0","","",""
"","psychophysics","519","1388246","0.0-2.0-3.161-0.161","1np","[""R""]","","","","","","null","key","null","null","16.67031666666347","912","513","1","0","1","1","0","","",""
"","psychophysics","520","1390176","0.0-2.0-0.162","1np","[""R""]","","","","","","1224","key","z","z","16.672408695652596","912","513","1","0","1","1","1","true","",""
"","psychophysics","521","1391185","0.0-2.0-1.162","1np","[""R""]","","","","","","null","key","null","null","16.67196666666617","912","513","1","0","1","1","1","","",""
"","psychophysics","522","1392190","0.0-2.0-2.162-0.162","1np","[""R""]","","","","","","null","key","null","null","16.671881355929298","912","513","1","0","1","1","1","","",""
"","psychophysics","523","1394112","0.0-2.0-0.163","1np","[""R""]","","","","","","1218","key","m","m","16.67180701754293","912","513","2","0","0","1","1","true","",""
"","psychophysics","524","1395121","0.0-2.0-1.163","1np","[""R""]","","","","","","null","key","null","null","16.67269999999941","912","513","2","0","0","1","1","","",""
"","psychophysics","525","1396134","0.0-2.0-2.163-0.163","1np","[""R""]","","","","","","null","key","null","null","16.67167796610097","912","513","2","0","0","1","1","","",""
"","psychophysics","526","1398432","0.0-2.0-0.164","1np","[""R""]","","","","","","1593","key","z","z","16.67184671532723","912","513","1","0","0","1","1","true","",""
"","psychophysics","527","1399446","0.0-2.0-1.164","1np","[""R""]","","","","","","null","key","null","null","16.67288333333175","912","513","1","0","0","1","1","","",""
"","psychophysics","528","1400456","0.0-2.0-2.164-0.164","1np","[""R""]","","","","","","null","key","null","null","16.672766666669244","912","513","1","0","0","1","1","","",""
"","psychophysics","529","1402312","0.0-2.0-0.165","1np","[""R""]","","","","","","1145","key","m","m","16.671427272727968","912","513","2","0","1","0","1","true","",""
"","psychophysics","530","1403318","0.0-2.0-1.165","1np","[""R""]","","","","","","null","key","null","null","16.672457627115488","912","513","2","0","1","0","1","","",""
"","psychophysics","531","1404334","0.0-2.0-2.165-0.165","1np","[""R""]","","","","","","null","key","null","null","16.67286666666623","912","513","2","0","1","0","1","","",""
"","psychophysics","532","1406296","0.0-2.0-0.166","1np","[""R""]","","","","","","1255","key","m","m","16.67234188034279","912","513","2","0","1","0","1","true","",""
"","psychophysics","533","1407318","0.0-2.0-1.166","1np","[""R""]","","","","","","null","key","null","null","16.67184745762655","912","513","2","0","1","0","1","","",""
"","psychophysics","534","1408325","0.0-2.0-2.166-0.166","1np","[""R""]","","","","","","null","key","null","null","16.44849180327881","912","513","2","0","1","0","1","","",""
"","psychophysics","535","1409744","0.0-2.0-0.167","1np","[""R""]","","","","","","713","key","m","m","16.67161904761867","912","513","2","0","1","1","1","true","",""
"","psychophysics","536","1410756","0.0-2.0-1.167","1np","[""R""]","","","","","","null","key","null","null","16.67201694915213","912","513","2","0","1","1","1","","",""
"","psychophysics","537","1411767","0.0-2.0-2.167-0.167","1np","[""R""]","","","","","","null","key","null","null","16.671999999997205","912","513","2","0","1","1","1","","",""
"","psychophysics","538","1413288","0.0-2.0-0.168","1np","[""R""]","","","","","","815","key","m","m","16.672500000001552","912","513","1","0","1","0","1","false","",""
"","psychophysics","539","1414302","0.0-2.0-1.168","1np","[""R""]","","","","","","null","key","null","null","16.67278333333476","912","513","1","0","1","0","1","","",""
"","psychophysics","540","1415318","0.0-2.0-3.168-0.168","1np","[""R""]","","","","","","null","key","null","null","16.6724333333356","912","513","1","0","1","0","1","","",""
"","psychophysics","541","1417104","0.0-2.0-0.169","1np","[""R""]","","","","","","1081","key","m","m","16.672386792453253","912","513","2","0","1","0","1","true","",""
"","psychophysics","542","1418112","0.0-2.0-1.169","1np","[""R""]","","","","","","null","key","null","null","16.67233333333085","912","513","2","0","1","0","1","","",""
"","psychophysics","543","1419125","0.0-2.0-2.169-0.169","1np","[""R""]","","","","","","null","key","null","null","16.671830508475175","912","513","2","0","1","0","1","","",""
"","psychophysics","544","1420456","0.0-2.0-0.170","1np","[""R""]","","","","","","626","key","z","z","16.671886075951182","912","513","1","1","0","1","0","true","",""
"","psychophysics","545","1421471","0.0-2.0-1.170","1np","[""R""]","","","","","","null","key","null","null","16.672450000001117","912","513","1","1","0","1","0","","",""
"","psychophysics","546","1422480","0.0-2.0-2.170-0.170","1np","[""R""]","","","","","","null","key","null","null","16.67226666666878","912","513","1","1","0","1","0","","",""
"","psychophysics","547","1424561","0.0-2.0-0.171","1np","[""R""]","","","","","","1371","key","m","m","16.67188617886173","912","513","2","0","0","1","1","true","",""
"","psychophysics","548","1425575","0.0-2.0-1.171","1np","[""R""]","","","","","","null","key","null","null","16.672466666666637","912","513","2","0","0","1","1","","",""
"","psychophysics","549","1426590","0.0-2.0-2.171-0.171","1np","[""R""]","","","","","","null","key","null","null","16.67213333333299","912","513","2","0","0","1","1","","",""
"","psychophysics","550","1429192","0.0-2.0-0.172","1np","[""R""]","","","","","","1898","key","z","z","16.67201935483984","912","513","1","1","1","1","0","true","",""
"","psychophysics","551","1430207","0.0-2.0-1.172","1np","[""R""]","","","","","","null","key","null","null","16.67298333333262","912","513","1","1","1","1","0","","",""
"","psychophysics","552","1431216","0.0-2.0-2.172-0.172","1np","[""R""]","","","","","","null","key","null","null","16.672383333331286","912","513","1","1","1","1","0","","",""
"","psychophysics","553","1434024","0.0-2.0-0.173","1np","[""R""]","","","","","","2097","key","z","z","16.672329341317944","912","513","1","0","1","0","1","true","",""
"","psychophysics","554","1435033","0.0-2.0-1.173","1np","[""R""]","","","","","","null","key","null","null","16.95525423728987","912","513","1","0","1","0","1","","",""
"","psychophysics","555","1436047","0.0-2.0-2.173-0.173","1np","[""R""]","","","","","","null","key","null","null","16.671694915252342","912","513","1","0","1","0","1","","",""
"","psychophysics","556","1437729","0.0-2.0-0.174","1np","[""R""]","","","","","","977","key","z","z","16.67187000000151","912","513","1","0","1","1","1","true","",""
"","psychophysics","557","1438743","0.0-2.0-1.174","1np","[""R""]","","","","","","null","key","null","null","16.672566666667503","912","513","1","0","1","1","1","","",""
"","psychophysics","558","1439752","0.0-2.0-2.174-0.174","1np","[""R""]","","","","","","null","key","null","null","16.67298333333262","912","513","1","0","1","1","1","","",""
"","psychophysics","559","1444049","0.0-2.0-0.175","1np","[""R""]","","","","","","3585","key","m","m","16.671796874999927","912","513","2","0","0","1","1","true","",""
"","psychophysics","560","1445064","0.0-2.0-1.175","1np","[""R""]","","","","","","null","key","null","null","16.673016666667536","912","513","2","0","0","1","1","","",""
"","psychophysics","561","1446079","0.0-2.0-2.175-0.175","1np","[""R""]","","","","","","null","key","null","null","16.672849999996835","912","513","2","0","0","1","1","","",""
"","psychophysics","562","1448049","0.0-2.0-0.176","1np","[""R""]","","","","","","1264","key","z","z","16.672418803418388","912","513","1","0","1","1","1","true","",""
"","psychophysics","563","1449063","0.0-2.0-1.176","1np","[""R""]","","","","","","null","key","null","null","16.67286666666623","912","513","1","0","1","1","1","","",""
"","psychophysics","564","1450073","0.0-2.0-2.176-0.176","1np","[""R""]","","","","","","null","key","null","null","16.67271666666493","912","513","1","0","1","1","1","","",""
"","psychophysics","565","1451724","0.0-2.0-0.177","1np","[""R""]","","","","","","941","key","m","m","16.671877551020827","912","513","2","0","1","1","1","true","",""
"","psychophysics","566","1452735","0.0-2.0-1.177","1np","[""R""]","","","","","","null","key","null","null","16.67179661017243","912","513","2","0","1","1","1","","",""
"","psychophysics","567","1453752","0.0-2.0-2.177-0.177","1np","[""R""]","","","","","","null","key","null","null","16.672733333334328","912","513","2","0","1","1","1","","",""
"","psychophysics","568","1455969","0.0-2.0-0.178","1np","[""R""]","","","","","","1511","key","m","m","16.672204545453884","912","513","2","1","0","1","0","true","",""
"","psychophysics","569","1456983","0.0-2.0-1.178","1np","[""R""]","","","","","","null","key","null","null","16.672483333336036","912","513","2","1","0","1","0","","",""
"","psychophysics","570","1457999","0.0-2.0-2.178-0.178","1np","[""R""]","","","","","","null","key","null","null","16.672833333331315","912","513","2","1","0","1","0","","",""
"","psychophysics","571","1459753","0.0-2.0-0.179","1np","[""R""]","","","","","","1050","key","m","m","16.67241346153717","912","513","2","0","1","1","1","true","",""
"","psychophysics","572","1460767","0.0-2.0-1.179","1np","[""R""]","","","","","","null","key","null","null","16.672683333333893","912","513","2","0","1","1","1","","",""
"","psychophysics","573","1461783","0.0-2.0-2.179-0.179","1np","[""R""]","","","","","","null","key","null","null","16.672749999999844","912","513","2","0","1","1","1","","",""
"","psychophysics","574","1463969","0.0-2.0-0.180","1np","[""R""]","","","","","","1479","key","z","z","16.67225384615505","912","513","1","1","0","1","1","true","",""
"","psychophysics","575","1464977","0.0-2.0-1.180","1np","[""R""]","","","","","","null","key","null","null","16.672283333334295","912","513","1","1","0","1","1","","",""
"","psychophysics","576","1465990","0.0-2.0-2.180-0.180","1np","[""R""]","","","","","","null","key","null","null","16.671881355933245","912","513","1","1","0","1","1","","",""
"","psychophysics","577","1467881","0.0-2.0-0.181","1np","[""R""]","","","","","","1186","key","z","z","16.672150442477694","912","513","1","0","0","1","1","true","",""
