"success","trial_type","trial_index","time_elapsed","internal_node_id","subject","condition","timeout","failed_images","failed_audio","failed_video","view_history","rt","response_type","key_press","response","avg_frame_time","center_x","center_y","outcome","p1conf","p2conf","p1rslt","p2rslt","correct","stimulus","question_order"
"true","fullscreen","0","2035","0.0-0.0-0.0","d5l","[""l""]","","","","","","","","","","","","","","","","","","","",""
"true","preload","1","2043","0.0-0.0-1.0","d5l","[""l""]","false","[]","[]","[]","","","","","","","","","","","","","","","",""
"","instructions","2","132819","0.0-1.0","d5l","[""l""]","","","","","[{""page_index"":0,""viewing_time"":90310},{""page_index"":1,""viewing_time"":18504},{""page_index"":2,""viewing_time"":21960}]","130775","","","","","","","","","","","","","",""
"","psychophysics","3","147487","0.0-2.0-0.0","d5l","[""l""]","","","","","","13958","key","m","m","16.671873863636343","912","513","1","1","1","1","1","false","",""
"","psychophysics","4","148500","0.0-2.0-1.0","d5l","[""l""]","","","","","","null","key","null","null","16.67313333333344","912","513","1","1","1","1","1","","",""
"","psychophysics","5","149522","0.0-2.0-3.0-0.0","d5l","[""l""]","","","","","","null","key","null","null","16.672966666666618","912","513","1","1","1","1","1","","",""
"","psychophysics","6","151960","0.0-2.0-0.1","d5l","[""l""]","","","","","","1733","key","m","m","16.672324137930993","912","513","1","1","1","1","1","false","",""
"","psychophysics","7","152970","0.0-2.0-1.1","d5l","[""l""]","","","","","","null","key","null","null","16.67305000000003","912","513","1","1","1","1","1","","",""
"","psychophysics","8","153981","0.0-2.0-3.1-0.1","d5l","[""l""]","","","","","","null","key","null","null","16.672779661016754","912","513","1","1","1","1","1","","",""
"","psychophysics","9","157520","0.0-2.0-0.2","d5l","[""l""]","","","","","","2824","key","z","z","16.672009433962334","912","513","1","0","0","0","0","true","",""
"","psychophysics","10","158528","0.0-2.0-1.2","d5l","[""l""]","","","","","","null","key","null","null","16.67189830508462","912","513","1","0","0","0","0","","",""
"","psychophysics","11","159540","0.0-2.0-2.2-0.2","d5l","[""l""]","","","","","","null","key","null","null","16.672866666666717","912","513","1","0","0","0","0","","",""
"","psychophysics","12","163080","0.0-2.0-0.3","d5l","[""l""]","","","","","","2835","key","z","z","16.6721469194313","912","513","2","0","0","1","1","false","",""
"","psychophysics","13","164090","0.0-2.0-1.3","d5l","[""l""]","","","","","","null","key","null","null","16.672216666666404","912","513","2","0","0","1","1","","",""
"","psychophysics","14","165095","0.0-2.0-3.3-0.3","d5l","[""l""]","","","","","","null","key","null","null","16.672491525423663","912","513","2","0","0","1","1","","",""
"","psychophysics","15","166024","0.0-2.0-0.4","d5l","[""l""]","","","","","","224","key","m","m","16.672836363636254","912","513","2","0","1","1","1","true","",""
"","psychophysics","16","167032","0.0-2.0-1.4","d5l","[""l""]","","","","","","null","key","null","null","16.671864406779896","912","513","2","0","1","1","1","","",""
"","psychophysics","17","168043","0.0-2.0-2.4-0.4","d5l","[""l""]","","","","","","null","key","null","null","16.672816666666282","912","513","2","0","1","1","1","","",""
"","psychophysics","18","170416","0.0-2.0-0.5","d5l","[""l""]","","","","","","1669","key","m","m","16.672297872340387","912","513","1","0","1","0","0","false","",""
"","psychophysics","19","171425","0.0-2.0-1.5","d5l","[""l""]","","","","","","null","key","null","null","16.671683333333444","912","513","1","0","1","0","0","","",""
"","psychophysics","20","172434","0.0-2.0-3.5-0.5","d5l","[""l""]","","","","","","null","key","null","null","16.670932203390187","912","513","1","0","1","0","0","","",""
"","psychophysics","21","179080","0.0-2.0-0.6","d5l","[""l""]","","","","","","5943","key","m","m","16.67198492462307","912","513","1","0","0","1","0","false","",""
"","psychophysics","22","180087","0.0-2.0-1.6","d5l","[""l""]","","","","","","null","key","null","null","16.672203389830567","912","513","1","0","0","1","0","","",""
"","psychophysics","23","181097","0.0-2.0-3.6-0.6","d5l","[""l""]","","","","","","null","key","null","null","16.672799999999793","912","513","1","0","0","1","0","","",""
"","psychophysics","24","183376","0.0-2.0-0.7","d5l","[""l""]","","","","","","1576","key","z","z","16.671522058823673","912","513","1","1","0","1","0","true","",""
"","psychophysics","25","184380","0.0-2.0-1.7","d5l","[""l""]","","","","","","null","key","null","null","16.67289830508476","912","513","1","1","0","1","0","","",""
"","psychophysics","26","185390","0.0-2.0-2.7-0.7","d5l","[""l""]","","","","","","null","key","null","null","16.67172881355904","912","513","1","1","0","1","0","","",""
"","psychophysics","27","191576","0.0-2.0-0.8","d5l","[""l""]","","","","","","5481","key","m","m","16.671945945945932","912","513","1","1","0","0","1","false","",""
"","psychophysics","28","192585","0.0-2.0-1.8","d5l","[""l""]","","","","","","null","key","null","null","16.671716666666907","912","513","1","1","0","0","1","","",""
"","psychophysics","29","193597","0.0-2.0-3.8-0.8","d5l","[""l""]","","","","","","null","key","null","null","16.67273333333336","912","513","1","1","0","0","1","","",""
"","psychophysics","30","197345","0.0-2.0-0.9","d5l","[""l""]","","","","","","3043","key","m","m","16.671883408071693","912","513","2","0","0","1","1","true","",""
"","psychophysics","31","198353","0.0-2.0-1.9","d5l","[""l""]","","","","","","null","key","null","null","16.672533333333075","912","513","2","0","0","1","1","","",""
"","psychophysics","32","199366","0.0-2.0-2.9-0.9","d5l","[""l""]","","","","","","null","key","null","null","16.672850000000228","912","513","2","0","0","1","1","","",""
"","psychophysics","33","202760","0.0-2.0-0.10","d5l","[""l""]","","","","","","2690","key","z","z","16.671886138613957","912","513","1","0","0","1","1","true","",""
"","psychophysics","34","203769","0.0-2.0-1.10","d5l","[""l""]","","","","","","null","key","null","null","16.672699999999896","912","513","1","0","0","1","1","","",""
"","psychophysics","35","204777","0.0-2.0-2.10-0.10","d5l","[""l""]","","","","","","null","key","null","null","16.67233898305044","912","513","1","0","0","1","1","","",""
"","psychophysics","36","207185","0.0-2.0-0.11","d5l","[""l""]","","","","","","1701","key","z","z","16.672263888888967","912","513","2","1","1","1","1","false","",""
"","psychophysics","37","208193","0.0-2.0-1.11","d5l","[""l""]","","","","","","null","key","null","null","16.671372881355513","912","513","2","1","1","1","1","","",""
"","psychophysics","38","209203","0.0-2.0-3.11-0.11","d5l","[""l""]","","","","","","null","key","null","null","16.672966666666618","912","513","2","1","1","1","1","","",""
"","psychophysics","39","210832","0.0-2.0-0.12","d5l","[""l""]","","","","","","925","key","z","z","16.671822916666617","912","513","1","0","0","1","1","true","",""
"","psychophysics","40","211840","0.0-2.0-1.12","d5l","[""l""]","","","","","","null","key","null","null","16.673099999999977","912","513","1","0","0","1","1","","",""
"","psychophysics","41","212853","0.0-2.0-2.12-0.12","d5l","[""l""]","","","","","","null","key","null","null","16.672683333333406","912","513","1","0","0","1","1","","",""
"","psychophysics","42","214137","0.0-2.0-0.13","d5l","[""l""]","","","","","","581","key","m","m","16.671881578947296","912","513","2","0","0","1","1","true","",""
"","psychophysics","43","215145","0.0-2.0-1.13","d5l","[""l""]","","","","","","null","key","null","null","16.672677966101602","912","513","2","0","0","1","1","","",""
"","psychophysics","44","216155","0.0-2.0-2.13-0.13","d5l","[""l""]","","","","","","null","key","null","null","16.672550000000047","912","513","2","0","0","1","1","","",""
"","psychophysics","45","216984","0.0-2.0-0.14","d5l","[""l""]","","","","","","126","key","z","z","16.672187499999684","912","513","2","0","1","0","0","false","",""
"","psychophysics","46","217992","0.0-2.0-1.14","d5l","[""l""]","","","","","","null","key","null","null","16.672216666666888","912","513","2","0","1","0","0","","",""
"","psychophysics","47","219001","0.0-2.0-3.14-0.14","d5l","[""l""]","","","","","","null","key","null","null","16.672949152542337","912","513","2","0","1","0","0","","",""
"","psychophysics","48","220340","0.0-2.0-0.15","d5l","[""l""]","","","","","","634","key","z","z","16.671999999999752","912","513","2","0","1","1","1","false","",""
"","psychophysics","49","221348","0.0-2.0-1.15","d5l","[""l""]","","","","","","null","key","null","null","16.671728813559533","912","513","2","0","1","1","1","","",""
"","psychophysics","50","222358","0.0-2.0-3.15-0.15","d5l","[""l""]","","","","","","null","key","null","null","16.672933333333155","912","513","2","0","1","1","1","","",""
"","psychophysics","51","223320","0.0-2.0-0.16","d5l","[""l""]","","","","","","259","key","z","z","16.67246428571421","912","513","2","0","1","0","1","false","",""
"","psychophysics","52","224327","0.0-2.0-1.16","d5l","[""l""]","","","","","","null","key","null","null","16.672649999999944","912","513","2","0","1","0","1","","",""
"","psychophysics","53","225336","0.0-2.0-3.16-0.16","d5l","[""l""]","","","","","","null","key","null","null","16.67277966101725","912","513","2","0","1","0","1","","",""
"","psychophysics","54","226527","0.0-2.0-0.17","d5l","[""l""]","","","","","","487","key","m","m","16.671605633802933","912","513","2","0","1","1","1","true","",""
"","psychophysics","55","227535","0.0-2.0-1.17","d5l","[""l""]","","","","","","null","key","null","null","16.672220338982928","912","513","2","0","1","1","1","","",""
"","psychophysics","56","228544","0.0-2.0-2.17-0.17","d5l","[""l""]","","","","","","null","key","null","null","16.672883333333207","912","513","2","0","1","1","1","","",""
"","psychophysics","57","229343","0.0-2.0-0.18","d5l","[""l""]","","","","","","96","key","z","z","16.67185106382958","912","513","2","1","0","1","1","false","",""
"","psychophysics","58","230351","0.0-2.0-1.18","d5l","[""l""]","","","","","","null","key","null","null","16.67189830508462","912","513","2","1","0","1","1","","",""
"","psychophysics","59","231360","0.0-2.0-3.18-0.18","d5l","[""l""]","","","","","","null","key","null","null","16.672516666666585","912","513","2","1","0","1","1","","",""
"","psychophysics","60","232262","0.0-2.0-0.19","d5l","[""l""]","","","","","","198","key","m","m","16.669471698113","912","513","1","1","1","1","1","false","",""
"","psychophysics","61","233265","0.0-2.0-1.19","d5l","[""l""]","","","","","","null","key","null","null","16.6733728813558","912","513","1","1","1","1","1","","",""
"","psychophysics","62","234276","0.0-2.0-3.19-0.19","d5l","[""l""]","","","","","","null","key","null","null","16.672766666666817","912","513","1","1","1","1","1","","",""
"","psychophysics","63","235399","0.0-2.0-0.20","d5l","[""l""]","","","","","","419","key","z","z","16.671136363636556","912","513","1","1","0","1","0","true","",""
"","psychophysics","64","236410","0.0-2.0-1.20","d5l","[""l""]","","","","","","null","key","null","null","16.672333333333274","912","513","1","1","0","1","0","","",""
"","psychophysics","65","237420","0.0-2.0-2.20-0.20","d5l","[""l""]","","","","","","null","key","null","null","16.672847457627185","912","513","1","1","0","1","0","","",""
"","psychophysics","66","238799","0.0-2.0-0.21","d5l","[""l""]","","","","","","676","key","z","z","16.672621951219497","912","513","2","1","1","0","1","false","",""
"","psychophysics","67","239806","0.0-2.0-1.21","d5l","[""l""]","","","","","","null","key","null","null","16.67313559322028","912","513","2","1","1","0","1","","",""
"","psychophysics","68","240816","0.0-2.0-3.21-0.21","d5l","[""l""]","","","","","","null","key","null","null","16.671600000000034","912","513","2","1","1","0","1","","",""
"","psychophysics","69","243464","0.0-2.0-0.22","d5l","[""l""]","","","","","","1943","key","m","m","16.672202531645652","912","513","2","0","0","0","1","true","",""
"","psychophysics","70","244471","0.0-2.0-1.22","d5l","[""l""]","","","","","","null","key","null","null","16.670949152542548","912","513","2","0","0","0","1","","",""
"","psychophysics","71","245481","0.0-2.0-2.22-0.22","d5l","[""l""]","","","","","","null","key","null","null","16.672200000000398","912","513","2","0","0","0","1","","",""
"","psychophysics","72","247175","0.0-2.0-0.23","d5l","[""l""]","","","","","","979","key","m","m","16.672339999999966","912","513","2","0","1","1","0","true","",""
"","psychophysics","73","248183","0.0-2.0-1.23","d5l","[""l""]","","","","","","null","key","null","null","16.673083333333487","912","513","2","0","1","1","0","","",""
"","psychophysics","74","249202","0.0-2.0-2.23-0.23","d5l","[""l""]","","","","","","null","key","null","null","16.671300000000336","912","513","2","0","1","1","0","","",""
"","psychophysics","75","250032","0.0-2.0-0.24","d5l","[""l""]","","","","","","126","key","m","m","16.67267346938737","912","513","1","0","1","1","0","false","",""
"","psychophysics","76","251039","0.0-2.0-1.24","d5l","[""l""]","","","","","","null","key","null","null","16.671932203389833","912","513","1","0","1","1","0","","",""
"","psychophysics","77","252049","0.0-2.0-3.24-0.24","d5l","[""l""]","","","","","","null","key","null","null","16.672966666666618","912","513","1","0","1","1","0","","",""
"","psychophysics","78","253175","0.0-2.0-0.25","d5l","[""l""]","","","","","","423","key","z","z","16.672621212121378","912","513","2","0","1","1","1","false","",""
"","psychophysics","79","254184","0.0-2.0-1.25","d5l","[""l""]","","","","","","null","key","null","null","16.672899999999693","912","513","2","0","1","1","1","","",""
"","psychophysics","80","255193","0.0-2.0-3.25-0.25","d5l","[""l""]","","","","","","null","key","null","null","16.67108474576242","912","513","2","0","1","1","1","","",""
"","psychophysics","81","256944","0.0-2.0-0.26","d5l","[""l""]","","","","","","1044","key","m","m","16.672250000000183","912","513","2","0","0","0","0","true","",""
"","psychophysics","82","257952","0.0-2.0-1.26","d5l","[""l""]","","","","","","null","key","null","null","16.67305000000003","912","513","2","0","0","0","0","","",""
"","psychophysics","83","258961","0.0-2.0-2.26-0.26","d5l","[""l""]","","","","","","null","key","null","null","16.67181355932183","912","513","2","0","0","0","0","","",""
"","psychophysics","84","259896","0.0-2.0-0.27","d5l","[""l""]","","","","","","230","key","m","m","16.672127272727348","912","513","2","1","1","1","1","true","",""
"","psychophysics","85","260904","0.0-2.0-1.27","d5l","[""l""]","","","","","","null","key","null","null","16.672466666666637","912","513","2","1","1","1","1","","",""
"","psychophysics","86","261913","0.0-2.0-2.27-0.27","d5l","[""l""]","","","","","","null","key","null","null","16.671779661016615","912","513","2","1","1","1","1","","",""
"","psychophysics","87","267727","0.0-2.0-0.28","d5l","[""l""]","","","","","","5109","key","z","z","16.672020114942562","912","513","1","1","1","0","1","true","",""
"","psychophysics","88","268736","0.0-2.0-1.28","d5l","[""l""]","","","","","","null","key","null","null","16.67298333333359","912","513","1","1","1","0","1","","",""
"","psychophysics","89","269745","0.0-2.0-2.28-0.28","d5l","[""l""]","","","","","","null","key","null","null","16.67128813559272","912","513","1","1","1","0","1","","",""
"","psychophysics","90","271295","0.0-2.0-0.29","d5l","[""l""]","","","","","","846","key","m","m","16.672695652173665","912","513","1","1","0","1","1","false","",""
"","psychophysics","91","272304","0.0-2.0-1.29","d5l","[""l""]","","","","","","null","key","null","null","16.673016666667536","912","513","1","1","0","1","1","","",""
"","psychophysics","92","273314","0.0-2.0-3.29-0.29","d5l","[""l""]","","","","","","null","key","null","null","16.67199999999977","912","513","1","1","0","1","1","","",""
"","psychophysics","93","275423","0.0-2.0-0.30","d5l","[""l""]","","","","","","1401","key","z","z","16.672317460317455","912","513","1","1","0","0","1","true","",""
"","psychophysics","94","276430","0.0-2.0-1.30","d5l","[""l""]","","","","","","null","key","null","null","16.67184745762655","912","513","1","1","0","0","1","","",""
"","psychophysics","95","277440","0.0-2.0-2.30-0.30","d5l","[""l""]","","","","","","null","key","null","null","16.673033333334025","912","513","1","1","0","0","1","","",""
"","psychophysics","96","278927","0.0-2.0-0.31","d5l","[""l""]","","","","","","783","key","m","m","16.67254545454555","912","513","1","1","1","0","1","false","",""
"","psychophysics","97","279935","0.0-2.0-1.31","d5l","[""l""]","","","","","","null","key","null","null","16.671440677965943","912","513","1","1","1","0","1","","",""
"","psychophysics","98","280946","0.0-2.0-3.31-0.31","d5l","[""l""]","","","","","","null","key","null","null","16.67273333333336","912","513","1","1","1","0","1","","",""
"","psychophysics","99","282008","0.0-2.0-0.32","d5l","[""l""]","","","","","","357","key","z","z","16.67258730158764","912","513","2","0","1","1","1","false","",""
"","psychophysics","100","283015","0.0-2.0-1.32","d5l","[""l""]","","","","","","null","key","null","null","16.671932203389343","912","513","2","0","1","1","1","","",""
"","psychophysics","101","284025","0.0-2.0-3.32-0.32","d5l","[""l""]","","","","","","null","key","null","null","16.67304999999954","912","513","2","0","1","1","1","","",""
"","psychophysics","102","288935","0.0-2.0-0.33","d5l","[""l""]","","","","","","4206","key","z","z","16.672061433447062","912","513","1","0","1","1","1","true","",""
"","psychophysics","103","289944","0.0-2.0-1.33","d5l","[""l""]","","","","","","null","key","null","null","16.672449999999177","912","513","1","0","1","1","1","","",""
"","psychophysics","104","290953","0.0-2.0-2.33-0.33","d5l","[""l""]","","","","","","null","key","null","null","16.670830508474047","912","513","1","0","1","1","1","","",""
"","psychophysics","105","292751","0.0-2.0-0.34","d5l","[""l""]","","","","","","1091","key","m","m","16.672401869158744","912","513","1","1","0","1","1","false","",""
"","psychophysics","106","293761","0.0-2.0-1.34","d5l","[""l""]","","","","","","null","key","null","null","16.672933333333155","912","513","1","1","0","1","1","","",""
"","psychophysics","107","294770","0.0-2.0-3.34-0.34","d5l","[""l""]","","","","","","null","key","null","null","16.67176271186376","912","513","1","1","0","1","1","","",""
"","psychophysics","108","295578","0.0-2.0-0.35","d5l","[""l""]","","","","","","105","key","m","m","16.672250000000833","912","513","2","1","1","1","1","true","",""
"","psychophysics","109","296586","0.0-2.0-1.35","d5l","[""l""]","","","","","","null","key","null","null","16.671932203390327","912","513","2","1","1","1","1","","",""
"","psychophysics","110","297596","0.0-2.0-2.35-0.35","d5l","[""l""]","","","","","","null","key","null","null","16.672550000000047","912","513","2","1","1","1","1","","",""
"","psychophysics","111","299015","0.0-2.0-0.36","d5l","[""l""]","","","","","","715","key","z","z","16.6714047619046","912","513","2","1","1","0","0","false","",""
"","psychophysics","112","300024","0.0-2.0-1.36","d5l","[""l""]","","","","","","null","key","null","null","16.6725593220336","912","513","2","1","1","0","0","","",""
"","psychophysics","113","301033","0.0-2.0-3.36-0.36","d5l","[""l""]","","","","","","null","key","null","null","16.6729666666671","912","513","2","1","1","0","0","","",""
"","psychophysics","114","301959","0.0-2.0-0.37","d5l","[""l""]","","","","","","222","key","m","m","16.67361111111111","912","513","1","1","1","1","1","false","",""
"","psychophysics","115","302966","0.0-2.0-1.37","d5l","[""l""]","","","","","","null","key","null","null","16.672849999999745","912","513","1","1","1","1","1","","",""
"","psychophysics","116","303976","0.0-2.0-3.37-0.37","d5l","[""l""]","","","","","","null","key","null","null","16.67203389830449","912","513","1","1","1","1","1","","",""
"","psychophysics","117","305351","0.0-2.0-0.38","d5l","[""l""]","","","","","","670","key","m","m","16.672487804878408","912","513","2","1","0","0","0","true","",""
"","psychophysics","118","306358","0.0-2.0-1.38","d5l","[""l""]","","","","","","null","key","null","null","16.67205084745784","912","513","2","1","0","0","0","","",""
"","psychophysics","119","307368","0.0-2.0-2.38-0.38","d5l","[""l""]","","","","","","null","key","null","null","16.67280000000028","912","513","2","1","0","0","0","","",""
"","psychophysics","120","309233","0.0-2.0-0.39","d5l","[""l""]","","","","","","1162","key","z","z","16.672423423423645","912","513","2","1","1","0","1","false","",""
"","psychophysics","121","310241","0.0-2.0-1.39","d5l","[""l""]","","","","","","null","key","null","null","16.670491525422886","912","513","2","1","1","0","1","","",""
"","psychophysics","122","311250","0.0-2.0-3.39-0.39","d5l","[""l""]","","","","","","null","key","null","null","16.67290000000018","912","513","2","1","1","0","1","","",""
"","psychophysics","123","312617","0.0-2.0-0.40","d5l","[""l""]","","","","","","664","key","z","z","16.67171604938325","912","513","2","1","0","1","1","false","",""
"","psychophysics","124","313625","0.0-2.0-1.40","d5l","[""l""]","","","","","","null","key","null","null","16.672372881355656","912","513","2","1","0","1","1","","",""
"","psychophysics","125","314634","0.0-2.0-3.40-0.40","d5l","[""l""]","","","","","","null","key","null","null","16.672916666666666","912","513","2","1","0","1","1","","",""
"","psychophysics","126","315391","0.0-2.0-0.41","d5l","[""l""]","","","","","","53","key","m","m","16.671886363636904","912","513","2","0","1","1","1","true","",""
"","psychophysics","127","316409","0.0-2.0-1.41","d5l","[""l""]","","","","","","null","key","null","null","16.67290000000018","912","513","2","0","1","1","1","","",""
"","psychophysics","128","317419","0.0-2.0-2.41-0.41","d5l","[""l""]","","","","","","null","key","null","null","16.67294999999964","912","513","2","0","1","1","1","","",""
"","psychophysics","129","318719","0.0-2.0-0.42","d5l","[""l""]","","","","","","597","key","m","m","16.67158441558441","912","513","2","0","0","1","1","true","",""
"","psychophysics","130","319726","0.0-2.0-1.42","d5l","[""l""]","","","","","","null","key","null","null","16.67184745762655","912","513","2","0","0","1","1","","",""
"","psychophysics","131","320736","0.0-2.0-2.42-0.42","d5l","[""l""]","","","","","","null","key","null","null","16.67281666666677","912","513","2","0","0","1","1","","",""
"","psychophysics","132","321639","0.0-2.0-0.43","d5l","[""l""]","","","","","","198","key","m","m","16.671433962264345","912","513","2","0","1","0","1","true","",""
"","psychophysics","133","322647","0.0-2.0-1.43","d5l","[""l""]","","","","","","null","key","null","null","16.67047457627151","912","513","2","0","1","0","1","","",""
"","psychophysics","134","323656","0.0-2.0-2.43-0.43","d5l","[""l""]","","","","","","null","key","null","null","16.672283333333326","912","513","2","0","1","0","1","","",""
"","psychophysics","135","325047","0.0-2.0-0.44","d5l","[""l""]","","","","","","688","key","z","z","16.6727560975613","912","513","1","1","0","0","0","true","",""
"","psychophysics","136","326056","0.0-2.0-1.44","d5l","[""l""]","","","","","","null","key","null","null","16.67296666666613","912","513","1","1","0","0","0","","",""
"","psychophysics","137","327064","0.0-2.0-2.44-0.44","d5l","[""l""]","","","","","","null","key","null","null","16.672186440677713","912","513","1","1","0","0","0","","",""
"","psychophysics","138","328247","0.0-2.0-0.45","d5l","[""l""]","","","","","","479","key","m","m","16.67290000000004","912","513","2","0","0","0","1","true","",""
"","psychophysics","139","329256","0.0-2.0-1.45","d5l","[""l""]","","","","","","null","key","null","null","16.672666666667403","912","513","2","0","0","0","1","","",""
"","psychophysics","140","330275","0.0-2.0-2.45-0.45","d5l","[""l""]","","","","","","null","key","null","null","16.672350000000247","912","513","2","0","0","0","1","","",""
"","psychophysics","141","331543","0.0-2.0-0.46","d5l","[""l""]","","","","","","565","key","z","z","16.671826666666504","912","513","2","0","1","0","1","false","",""
"","psychophysics","142","332551","0.0-2.0-1.46","d5l","[""l""]","","","","","","null","key","null","null","16.67284745762669","912","513","2","0","1","0","1","","",""
"","psychophysics","143","333560","0.0-2.0-3.46-0.46","d5l","[""l""]","","","","","","null","key","null","null","16.6728666666672","912","513","2","0","1","0","1","","",""
"","psychophysics","144","334663","0.0-2.0-0.47","d5l","[""l""]","","","","","","400","key","m","m","16.67195384615423","912","513","1","1","0","1","1","false","",""
"","psychophysics","145","335671","0.0-2.0-1.47","d5l","[""l""]","","","","","","null","key","null","null","16.67284745762669","912","513","1","1","0","1","1","","",""
"","psychophysics","146","336680","0.0-2.0-3.47-0.47","d5l","[""l""]","","","","","","null","key","null","null","16.671183333333467","912","513","1","1","0","1","1","","",""
"","psychophysics","147","337976","0.0-2.0-0.48","d5l","[""l""]","","","","","","592","key","m","m","16.67276623376642","912","513","1","0","0","0","0","false","",""
"","psychophysics","148","338983","0.0-2.0-1.48","d5l","[""l""]","","","","","","null","key","null","null","16.67205084745784","912","513","1","0","0","0","0","","",""
"","psychophysics","149","339995","0.0-2.0-3.48-0.48","d5l","[""l""]","","","","","","null","key","null","null","16.6728666666672","912","513","1","0","0","0","0","","",""
"","psychophysics","150","340711","0.0-2.0-0.49","d5l","[""l""]","","","","","","13","key","m","m","16.67161904761867","912","513","2","0","1","1","1","true","",""
"","psychophysics","151","341718","0.0-2.0-1.49","d5l","[""l""]","","","","","","null","key","null","null","16.671881355932257","912","513","2","0","1","1","1","","",""
"","psychophysics","152","342729","0.0-2.0-2.49-0.49","d5l","[""l""]","","","","","","null","key","null","null","16.67281666666677","912","513","2","0","1","1","1","","",""
"","psychophysics","153","343616","0.0-2.0-0.50","d5l","[""l""]","","","","","","183","key","z","z","16.67192307692312","912","513","1","0","1","0","1","true","",""
"","psychophysics","154","344622","0.0-2.0-1.50","d5l","[""l""]","","","","","","null","key","null","null","16.672983050847552","912","513","1","0","1","0","1","","",""
"","psychophysics","155","345632","0.0-2.0-2.50-0.50","d5l","[""l""]","","","","","","null","key","null","null","16.6729666666671","912","513","1","0","1","0","1","","",""
"","psychophysics","156","346471","0.0-2.0-0.51","d5l","[""l""]","","","","","","135","key","m","m","16.67324489795921","912","513","2","1","1","1","1","true","",""
"","psychophysics","157","347480","0.0-2.0-1.51","d5l","[""l""]","","","","","","null","key","null","null","16.67298333333359","912","513","2","1","1","1","1","","",""
"","psychophysics","158","348488","0.0-2.0-2.51-0.51","d5l","[""l""]","","","","","","null","key","null","null","16.67284745762669","912","513","2","1","1","1","1","","",""
"","psychophysics","159","349919","0.0-2.0-0.52","d5l","[""l""]","","","","","","724","key","z","z","16.672470588234994","912","513","1","1","1","1","0","true","",""
"","psychophysics","160","350929","0.0-2.0-1.52","d5l","[""l""]","","","","","","null","key","null","null","16.67288333333272","912","513","1","1","1","1","0","","",""
"","psychophysics","161","351938","0.0-2.0-2.52-0.52","d5l","[""l""]","","","","","","null","key","null","null","16.6717457627114","912","513","1","1","1","1","0","","",""
"","psychophysics","162","353176","0.0-2.0-0.53","d5l","[""l""]","","","","","","534","key","m","m","16.672890410958694","912","513","2","1","0","1","0","true","",""
"","psychophysics","163","354196","0.0-2.0-1.53","d5l","[""l""]","","","","","","null","key","null","null","16.672967213115342","912","513","2","1","0","1","0","","",""
"","psychophysics","164","355205","0.0-2.0-2.53-0.53","d5l","[""l""]","","","","","","null","key","null","null","16.671847457627536","912","513","2","1","0","1","0","","",""
"","psychophysics","165","356088","0.0-2.0-0.54","d5l","[""l""]","","","","","","179","key","m","m","16.673365384615654","912","513","2","0","1","1","0","true","",""
"","psychophysics","166","357098","0.0-2.0-1.54","d5l","[""l""]","","","","","","null","key","null","null","16.673116666667436","912","513","2","0","1","1","0","","",""
"","psychophysics","167","358107","0.0-2.0-2.54-0.54","d5l","[""l""]","","","","","","null","key","null","null","16.671966101695048","912","513","2","0","1","1","0","","",""
"","psychophysics","168","359207","0.0-2.0-0.55","d5l","[""l""]","","","","","","396","key","m","m","16.672261538461317","912","513","1","1","0","1","1","false","",""
"","psychophysics","169","360216","0.0-2.0-1.55","d5l","[""l""]","","","","","","null","key","null","null","16.672849999999745","912","513","1","1","0","1","1","","",""
"","psychophysics","170","361225","0.0-2.0-3.55-0.55","d5l","[""l""]","","","","","","null","key","null","null","16.67198305084741","912","513","1","1","0","1","1","","",""
"","psychophysics","171","362287","0.0-2.0-0.56","d5l","[""l""]","","","","","","354","key","m","m","16.67266666666708","912","513","2","0","1","0","1","true","",""
"","psychophysics","172","363294","0.0-2.0-1.56","d5l","[""l""]","","","","","","null","key","null","null","16.6720677966102","912","513","2","0","1","0","1","","",""
"","psychophysics","173","364306","0.0-2.0-2.56-0.56","d5l","[""l""]","","","","","","null","key","null","null","16.67281666666677","912","513","2","0","1","0","1","","",""
"","psychophysics","174","365207","0.0-2.0-0.57","d5l","[""l""]","","","","","","198","key","m","m","16.67324528301943","912","513","1","0","0","1","1","false","",""
"","psychophysics","175","366217","0.0-2.0-1.57","d5l","[""l""]","","","","","","null","key","null","null","16.67305000000051","912","513","1","0","0","1","1","","",""
"","psychophysics","176","367237","0.0-2.0-3.57-0.57","d5l","[""l""]","","","","","","null","key","null","null","16.672483333333123","912","513","1","0","0","1","1","","",""
"","psychophysics","177","368035","0.0-2.0-0.58","d5l","[""l""]","","","","","","95","key","m","m","16.671765957447512","912","513","1","1","1","1","1","false","",""
"","psychophysics","178","369043","0.0-2.0-1.58","d5l","[""l""]","","","","","","null","key","null","null","16.671949152542688","912","513","1","1","1","1","1","","",""
"","psychophysics","179","370052","0.0-2.0-3.58-0.58","d5l","[""l""]","","","","","","null","key","null","null","16.67298333333359","912","513","1","1","1","1","1","","",""
"","psychophysics","180","371223","0.0-2.0-0.59","d5l","[""l""]","","","","","","468","key","m","m","16.671652173912793","912","513","1","1","0","1","0","false","",""
"","psychophysics","181","372231","0.0-2.0-1.59","d5l","[""l""]","","","","","","null","key","null","null","16.672338983049947","912","513","1","1","0","1","0","","",""
"","psychophysics","182","373241","0.0-2.0-3.59-0.59","d5l","[""l""]","","","","","","null","key","null","null","16.67273333333336","912","513","1","1","0","1","0","","",""
"","psychophysics","183","374000","0.0-2.0-0.60","d5l","[""l""]","","","","","","55","key","z","z","16.673659090909165","912","513","2","1","1","1","1","false","",""
"","psychophysics","184","375007","0.0-2.0-1.60","d5l","[""l""]","","","","","","null","key","null","null","16.67251666666707","912","513","2","1","1","1","1","","",""
"","psychophysics","185","376016","0.0-2.0-3.60-0.60","d5l","[""l""]","","","","","","null","key","null","null","16.67289830508476","912","513","2","1","1","1","1","","",""
"","psychophysics","186","377088","0.0-2.0-0.61","d5l","[""l""]","","","","","","367","key","z","z","16.671921875000407","912","513","1","0","0","1","1","true","",""
"","psychophysics","187","378106","0.0-2.0-1.61","d5l","[""l""]","","","","","","null","key","null","null","16.672016666666604","912","513","1","0","0","1","1","","",""
"","psychophysics","188","379114","0.0-2.0-2.61-0.61","d5l","[""l""]","","","","","","null","key","null","null","16.67201694915213","912","513","1","0","0","1","1","","",""
"","psychophysics","189","379983","0.0-2.0-0.62","d5l","[""l""]","","","","","","166","key","z","z","16.672941176470726","912","513","2","1","0","0","0","false","",""
"","psychophysics","190","380992","0.0-2.0-1.62","d5l","[""l""]","","","","","","null","key","null","null","16.672916666666666","912","513","2","1","0","0","0","","",""
"","psychophysics","191","382001","0.0-2.0-3.62-0.62","d5l","[""l""]","","","","","","null","key","null","null","16.67201694915213","912","513","2","1","0","0","0","","",""
"","psychophysics","192","383959","0.0-2.0-0.63","d5l","[""l""]","","","","","","1253","key","m","m","16.67222222222242","912","513","2","1","0","0","1","true","",""
"","psychophysics","193","384966","0.0-2.0-1.63","d5l","[""l""]","","","","","","null","key","null","null","16.67213559322063","912","513","2","1","0","0","1","","",""
"","psychophysics","194","385976","0.0-2.0-2.63-0.63","d5l","[""l""]","","","","","","null","key","null","null","16.672599999999512","912","513","2","1","0","0","1","","",""
"","psychophysics","195","387247","0.0-2.0-0.64","d5l","[""l""]","","","","","","568","key","m","m","16.67193333333358","912","513","1","0","1","1","1","false","",""
"","psychophysics","196","388257","0.0-2.0-1.64","d5l","[""l""]","","","","","","null","key","null","null","16.672749999999844","912","513","1","0","1","1","1","","",""
"","psychophysics","197","389265","0.0-2.0-3.64-0.64","d5l","[""l""]","","","","","","null","key","null","null","16.67177966101711","912","513","1","0","1","1","1","","",""
"","psychophysics","198","390359","0.0-2.0-0.65","d5l","[""l""]","","","","","","388","key","z","z","16.67276923076984","912","513","1","0","1","0","1","true","",""
"","psychophysics","199","391366","0.0-2.0-1.65","d5l","[""l""]","","","","","","null","key","null","null","16.67210169491492","912","513","1","0","1","0","1","","",""
"","psychophysics","200","392377","0.0-2.0-2.65-0.65","d5l","[""l""]","","","","","","null","key","null","null","16.67278333333282","912","513","1","0","1","0","1","","",""
"","psychophysics","201","395463","0.0-2.0-0.66","d5l","[""l""]","","","","","","2383","key","m","m","16.671907608695935","912","513","1","0","1","1","1","false","",""
"","psychophysics","202","396470","0.0-2.0-1.66","d5l","[""l""]","","","","","","null","key","null","null","16.672661016949736","912","513","1","0","1","1","1","","",""
"","psychophysics","203","397480","0.0-2.0-3.66-0.66","d5l","[""l""]","","","","","","null","key","null","null","16.672766666666334","912","513","1","0","1","1","1","","",""
"","psychophysics","204","399167","0.0-2.0-0.67","d5l","[""l""]","","","","","","984","key","m","m","16.67219000000041","912","513","1","0","1","1","1","false","",""
"","psychophysics","205","400177","0.0-2.0-1.67","d5l","[""l""]","","","","","","null","key","null","null","16.67290000000018","912","513","1","0","1","1","1","","",""
"","psychophysics","206","401186","0.0-2.0-3.67-0.67","d5l","[""l""]","","","","","","null","key","null","null","16.671949152542688","912","513","1","0","1","1","1","","",""
"","psychophysics","207","402583","0.0-2.0-0.68","d5l","[""l""]","","","","","","694","key","z","z","16.672445783132815","912","513","2","1","0","1","0","false","",""
"","psychophysics","208","403591","0.0-2.0-1.68","d5l","[""l""]","","","","","","null","key","null","null","16.672864406779052","912","513","2","1","0","1","0","","",""
"","psychophysics","209","404601","0.0-2.0-3.68-0.68","d5l","[""l""]","","","","","","null","key","null","null","16.673866666666193","912","513","2","1","0","1","0","","",""
"","psychophysics","210","405519","0.0-2.0-0.69","d5l","[""l""]","","","","","","214","key","m","m","16.67287037037076","912","513","2","0","0","1","0","true","",""
"","psychophysics","211","406529","0.0-2.0-1.69","d5l","[""l""]","","","","","","null","key","null","null","16.67294999999964","912","513","2","0","0","1","0","","",""
"","psychophysics","212","407538","0.0-2.0-2.69-0.69","d5l","[""l""]","","","","","","null","key","null","null","16.668016949152552","912","513","2","0","0","1","0","","",""
"","psychophysics","213","408423","0.0-2.0-0.70","d5l","[""l""]","","","","","","182","key","z","z","16.67240384615434","912","513","1","0","0","1","1","true","",""
"","psychophysics","214","409431","0.0-2.0-1.70","d5l","[""l""]","","","","","","null","key","null","null","16.673083333333487","912","513","1","0","0","1","1","","",""
"","psychophysics","215","410440","0.0-2.0-2.70-0.70","d5l","[""l""]","","","","","","null","key","null","null","16.671949152542688","912","513","1","0","0","1","1","","",""
"","psychophysics","216","411682","0.0-2.0-0.71","d5l","[""l""]","","","","","","538","key","m","m","16.672675675675556","912","513","1","1","0","0","0","false","",""
"","psychophysics","217","412689","0.0-2.0-1.71","d5l","[""l""]","","","","","","null","key","null","null","16.671830508475175","912","513","1","1","0","0","0","","",""
"","psychophysics","218","413699","0.0-2.0-3.71-0.71","d5l","[""l""]","","","","","","null","key","null","null","16.67280000000028","912","513","1","1","0","0","0","","",""
"","psychophysics","219","414735","0.0-2.0-0.72","d5l","[""l""]","","","","","","331","key","m","m","16.671852459016517","912","513","2","1","0","1","0","true","",""
"","psychophysics","220","415742","0.0-2.0-1.72","d5l","[""l""]","","","","","","null","key","null","null","16.67205084745784","912","513","2","1","0","1","0","","",""
"","psychophysics","221","416751","0.0-2.0-2.72-0.72","d5l","[""l""]","","","","","","null","key","null","null","16.67290000000018","912","513","2","1","0","1","0","","",""
"","psychophysics","222","417650","0.0-2.0-0.73","d5l","[""l""]","","","","","","196","key","m","m","16.673132075471276","912","513","2","0","0","1","1","true","",""
"","psychophysics","223","418658","0.0-2.0-1.73","d5l","[""l""]","","","","","","null","key","null","null","16.671677966101957","912","513","2","0","0","1","1","","",""
"","psychophysics","224","419667","0.0-2.0-2.73-0.73","d5l","[""l""]","","","","","","null","key","null","null","16.672766666666334","912","513","2","0","0","1","1","","",""
"","psychophysics","225","422295","0.0-2.0-0.74","d5l","[""l""]","","","","","","1924","key","z","z","16.67194871794849","912","513","2","0","0","0","0","false","",""
"","psychophysics","226","423304","0.0-2.0-1.74","d5l","[""l""]","","","","","","null","key","null","null","16.672916666666666","912","513","2","0","0","0","0","","",""
"","psychophysics","227","424313","0.0-2.0-3.74-0.74","d5l","[""l""]","","","","","","null","key","null","null","16.671881355932257","912","513","2","0","0","0","0","","",""
"","psychophysics","228","425055","0.0-2.0-0.75","d5l","[""l""]","","","","","","36","key","m","m","16.67302272727168","912","513","2","0","1","1","1","true","",""
"","psychophysics","229","426063","0.0-2.0-1.75","d5l","[""l""]","","","","","","null","key","null","null","16.670745762711256","912","513","2","0","1","1","1","","",""
"","psychophysics","230","427073","0.0-2.0-2.75-0.75","d5l","[""l""]","","","","","","null","key","null","null","16.6729666666671","912","513","2","0","1","1","1","","",""
"","psychophysics","231","428063","0.0-2.0-0.76","d5l","[""l""]","","","","","","286","key","m","m","16.67284482758661","912","513","2","0","0","0","1","true","",""
"","psychophysics","232","429072","0.0-2.0-1.76","d5l","[""l""]","","","","","","null","key","null","null","16.672299999999815","912","513","2","0","0","0","1","","",""
"","psychophysics","233","430081","0.0-2.0-2.76-0.76","d5l","[""l""]","","","","","","null","key","null","null","16.671864406779896","912","513","2","0","0","0","1","","",""
"","psychophysics","234","430904","0.0-2.0-0.77","d5l","[""l""]","","","","","","117","key","z","z","16.67191836734692","912","513","2","1","1","1","1","false","",""
"","psychophysics","235","431912","0.0-2.0-1.77","d5l","[""l""]","","","","","","null","key","null","null","16.67123728813564","912","513","2","1","1","1","1","","",""
"","psychophysics","236","432922","0.0-2.0-3.77-0.77","d5l","[""l""]","","","","","","null","key","null","null","16.67298333333262","912","513","2","1","1","1","1","","",""
"","psychophysics","237","434056","0.0-2.0-0.78","d5l","[""l""]","","","","","","430","key","z","z","16.6719253731339","912","513","2","0","1","1","1","false","",""
"","psychophysics","238","435064","0.0-2.0-1.78","d5l","[""l""]","","","","","","null","key","null","null","16.672338983050935","912","513","2","0","1","1","1","","",""
"","psychophysics","239","436074","0.0-2.0-3.78-0.78","d5l","[""l""]","","","","","","null","key","null","null","16.672683333332923","912","513","2","0","1","1","1","","",""
"","psychophysics","240","437215","0.0-2.0-0.79","d5l","[""l""]","","","","","","437","key","m","m","16.671716417910517","912","513","1","0","1","1","1","false","",""
"","psychophysics","241","438224","0.0-2.0-1.79","d5l","[""l""]","","","","","","null","key","null","null","16.672599999999512","912","513","1","0","1","1","1","","",""
"","psychophysics","242","439233","0.0-2.0-3.79-0.79","d5l","[""l""]","","","","","","null","key","null","null","16.67177966101711","912","513","1","0","1","1","1","","",""
"","psychophysics","243","440858","0.0-2.0-0.80","d5l","[""l""]","","","","","","918","key","m","m","16.67237113402033","912","513","2","1","1","1","1","true","",""
"","psychophysics","244","441868","0.0-2.0-1.80","d5l","[""l""]","","","","","","null","key","null","null","16.6725593220336","912","513","2","1","1","1","1","","",""
"","psychophysics","245","442876","0.0-2.0-2.80-0.80","d5l","[""l""]","","","","","","null","key","null","null","16.672933333333155","912","513","2","1","1","1","1","","",""
"","psychophysics","246","444351","0.0-2.0-0.81","d5l","[""l""]","","","","","","771","key","m","m","16.671885057470906","912","513","2","1","0","0","1","true","",""
"","psychophysics","247","445359","0.0-2.0-1.81","d5l","[""l""]","","","","","","null","key","null","null","16.6733666666667","912","513","2","1","0","0","1","","",""
"","psychophysics","248","446370","0.0-2.0-2.81-0.81","d5l","[""l""]","","","","","","null","key","null","null","16.67128813559272","912","513","2","1","0","0","1","","",""
"","psychophysics","249","447373","0.0-2.0-0.82","d5l","[""l""]","","","","","","298","key","m","m","16.670450000000226","912","513","2","1","1","1","1","true","",""
"","psychophysics","250","448376","0.0-2.0-1.82","d5l","[""l""]","","","","","","null","key","null","null","16.67184745762655","912","513","2","1","1","1","1","","",""
"","psychophysics","251","449380","0.0-2.0-2.82-0.82","d5l","[""l""]","","","","","","null","key","null","null","16.67132203389843","912","513","2","1","1","1","1","","",""
"","psychophysics","252","450525","0.0-2.0-0.83","d5l","[""l""]","","","","","","444","key","z","z","16.67182352941189","912","513","1","1","1","0","1","true","",""
"","psychophysics","253","451528","0.0-2.0-1.83","d5l","[""l""]","","","","","","null","key","null","null","16.67179661016947","912","513","1","1","1","0","1","","",""
"","psychophysics","254","452531","0.0-2.0-2.83-0.83","d5l","[""l""]","","","","","","null","key","null","null","16.674169491525635","912","513","1","1","1","0","1","","",""
"","psychophysics","255","453646","0.0-2.0-0.84","d5l","[""l""]","","","","","","410","key","m","m","16.672757575757604","912","513","1","1","1","0","1","false","",""
"","psychophysics","256","454654","0.0-2.0-1.84","d5l","[""l""]","","","","","","null","key","null","null","16.671220338982295","912","513","1","1","1","0","1","","",""
"","psychophysics","257","455664","0.0-2.0-3.84-0.84","d5l","[""l""]","","","","","","null","key","null","null","16.672849999999745","912","513","1","1","1","0","1","","",""
"","psychophysics","258","456462","0.0-2.0-0.85","d5l","[""l""]","","","","","","96","key","z","z","16.672063829787223","912","513","2","0","1","1","1","false","",""
"","psychophysics","259","457470","0.0-2.0-1.85","d5l","[""l""]","","","","","","null","key","null","null","16.671677966101957","912","513","2","0","1","1","1","","",""
"","psychophysics","260","458479","0.0-2.0-3.85-0.85","d5l","[""l""]","","","","","","null","key","null","null","16.672683333332923","912","513","2","0","1","1","1","","",""
"","psychophysics","261","459254","0.0-2.0-0.86","d5l","[""l""]","","","","","","71","key","m","m","16.672466666666637","912","513","1","1","0","1","1","false","",""
"","psychophysics","262","460262","0.0-2.0-1.86","d5l","[""l""]","","","","","","null","key","null","null","16.672450000000147","912","513","1","1","0","1","1","","",""
"","psychophysics","263","461271","0.0-2.0-3.86-0.86","d5l","[""l""]","","","","","","null","key","null","null","16.671576271186805","912","513","1","1","0","1","1","","",""
"","psychophysics","264","462143","0.0-2.0-0.87","d5l","[""l""]","","","","","","168","key","m","m","16.673215686273988","912","513","1","0","1","1","0","false","",""
"","psychophysics","265","463151","0.0-2.0-1.87","d5l","[""l""]","","","","","","null","key","null","null","16.67243333333366","912","513","1","0","1","1","0","","",""
"","psychophysics","266","464163","0.0-2.0-3.87-0.87","d5l","[""l""]","","","","","","null","key","null","null","16.67208333333353","912","513","1","0","1","1","0","","",""
"","psychophysics","267","465159","0.0-2.0-0.88","d5l","[""l""]","","","","","","291","key","z","z","16.67141379310312","912","513","2","1","0","1","0","false","",""
"","psychophysics","268","466166","0.0-2.0-1.88","d5l","[""l""]","","","","","","null","key","null","null","16.6729666666671","912","513","2","1","0","1","0","","",""
"","psychophysics","269","467186","0.0-2.0-3.88-0.88","d5l","[""l""]","","","","","","null","key","null","null","16.672683333332923","912","513","2","1","0","1","0","","",""
"","psychophysics","270","467958","0.0-2.0-0.89","d5l","[""l""]","","","","","","69","key","m","m","16.67317777777789","912","513","1","1","1","1","1","false","",""
"","psychophysics","271","468967","0.0-2.0-1.89","d5l","[""l""]","","","","","","null","key","null","null","16.672766666666334","912","513","1","1","1","1","1","","",""
"","psychophysics","272","469976","0.0-2.0-3.89-0.89","d5l","[""l""]","","","","","","null","key","null","null","16.672237288135783","912","513","1","1","1","1","1","","",""
"","psychophysics","273","470910","0.0-2.0-0.90","d5l","[""l""]","","","","","","228","key","m","m","16.673345454545185","912","513","2","0","1","1","1","true","",""
"","psychophysics","274","471918","0.0-2.0-1.90","d5l","[""l""]","","","","","","null","key","null","null","16.672216666667374","912","513","2","0","1","1","1","","",""
"","psychophysics","275","472924","0.0-2.0-2.90-0.90","d5l","[""l""]","","","","","","null","key","null","null","16.672288135592865","912","513","2","0","1","1","1","","",""
"","psychophysics","276","473870","0.0-2.0-0.91","d5l","[""l""]","","","","","","242","key","z","z","16.673053571428422","912","513","2","0","0","0","1","false","",""
"","psychophysics","277","474877","0.0-2.0-1.91","d5l","[""l""]","","","","","","null","key","null","null","16.672305084745226","912","513","2","0","0","0","1","","",""
"","psychophysics","278","475887","0.0-2.0-3.91-0.91","d5l","[""l""]","","","","","","null","key","null","null","16.672916666666666","912","513","2","0","0","0","1","","",""
"","psychophysics","279","476743","0.0-2.0-0.92","d5l","[""l""]","","","","","","153","key","m","m","16.67212000000058","912","513","1","0","0","1","0","false","",""
"","psychophysics","280","477751","0.0-2.0-1.92","d5l","[""l""]","","","","","","null","key","null","null","16.672916666666666","912","513","1","0","0","1","0","","",""
"","psychophysics","281","478760","0.0-2.0-3.92-0.92","d5l","[""l""]","","","","","","null","key","null","null","16.67338983050816","912","513","1","0","0","1","0","","",""
"","psychophysics","282","481606","0.0-2.0-0.93","d5l","[""l""]","","","","","","2143","key","m","m","16.671952941176237","912","513","1","1","0","1","0","false","",""
"","psychophysics","283","482613","0.0-2.0-1.93","d5l","[""l""]","","","","","","null","key","null","null","16.67176271186376","912","513","1","1","0","1","0","","",""
"","psychophysics","284","483623","0.0-2.0-3.93-0.93","d5l","[""l""]","","","","","","null","key","null","null","16.67298333333359","912","513","1","1","0","1","0","","",""
"","psychophysics","285","486198","0.0-2.0-0.94","d5l","[""l""]","","","","","","1872","key","m","m","16.671816993464056","912","513","2","1","0","1","0","true","",""
"","psychophysics","286","487206","0.0-2.0-1.94","d5l","[""l""]","","","","","","null","key","null","null","16.672216666667374","912","513","2","1","0","1","0","","",""
"","psychophysics","287","488214","0.0-2.0-2.94-0.94","d5l","[""l""]","","","","","","null","key","null","null","16.671966101694064","912","513","2","1","0","1","0","","",""
"","psychophysics","288","489535","0.0-2.0-0.95","d5l","[""l""]","","","","","","613","key","z","z","16.672564102564372","912","513","1","1","0","0","1","true","",""
"","psychophysics","289","490542","0.0-2.0-1.95","d5l","[""l""]","","","","","","null","key","null","null","16.67271666666687","912","513","1","1","0","0","1","","",""
"","psychophysics","290","491551","0.0-2.0-2.95-0.95","d5l","[""l""]","","","","","","null","key","null","null","16.672237288135783","912","513","1","1","0","0","1","","",""
"","psychophysics","291","492422","0.0-2.0-0.96","d5l","[""l""]","","","","","","167","key","m","m","16.67248076923156","912","513","2","1","0","1","0","true","",""
"","psychophysics","292","493430","0.0-2.0-1.96","d5l","[""l""]","","","","","","null","key","null","null","16.671440677965943","912","513","2","1","0","1","0","","",""
"","psychophysics","293","494440","0.0-2.0-2.96-0.96","d5l","[""l""]","","","","","","null","key","null","null","16.673083333333487","912","513","2","1","0","1","0","","",""
"","psychophysics","294","498655","0.0-2.0-0.97","d5l","[""l""]","","","","","","3510","key","m","m","16.671756972111456","912","513","2","1","1","0","1","true","",""
"","psychophysics","295","499663","0.0-2.0-1.97","d5l","[""l""]","","","","","","null","key","null","null","16.671383333333264","912","513","2","1","1","0","1","","",""
"","psychophysics","296","500675","0.0-2.0-2.97-0.97","d5l","[""l""]","","","","","","null","key","null","null","16.672833333334225","912","513","2","1","1","0","1","","",""
"","psychophysics","297","501615","0.0-2.0-0.98","d5l","[""l""]","","","","","","236","key","z","z","16.67245454545429","912","513","1","1","0","0","1","true","",""
"","psychophysics","298","502626","0.0-2.0-1.98","d5l","[""l""]","","","","","","null","key","null","null","16.67288333333369","912","513","1","1","0","0","1","","",""
"","psychophysics","299","503634","0.0-2.0-2.98-0.98","d5l","[""l""]","","","","","","null","key","null","null","16.671915254237966","912","513","1","1","0","0","1","","",""
"","psychophysics","300","504431","0.0-2.0-0.99","d5l","[""l""]","","","","","","92","key","m","m","16.672191489361563","912","513","1","0","0","1","1","false","",""
"","psychophysics","301","505439","0.0-2.0-1.99","d5l","[""l""]","","","","","","null","key","null","null","16.671152542372848","912","513","1","0","0","1","1","","",""
"","psychophysics","302","506449","0.0-2.0-3.99-0.99","d5l","[""l""]","","","","","","null","key","null","null","16.67224999999938","912","513","1","0","0","1","1","","",""
"","html-keyboard-response","303","515896","0.0-2.0-4.99-0.99","d5l","[""l""]","","","","","","9441","","","g","","","","","","","","","","<p>You have finished block 1 of 4.<p>You correctly predicted 49% of the races.<p>On the next screen, you will be given a 30 second break. Press the <b>g</b> key to start your break.",""
"","html-keyboard-response","304","516898","0.0-2.0-4.99-1.99-0.99","d5l","[""l""]","","","","","","null","","","null","","","","","","","","","","<p>The experiment will resume in 30 seconds. ",""
"","html-keyboard-response","305","517902","0.0-2.0-4.99-1.99-1.99","d5l","[""l""]","","","","","","null","","","null","","","","","","","","","","<p>The experiment will resume in 29 seconds. ",""
"","html-keyboard-response","306","518904","0.0-2.0-4.99-1.99-2.99","d5l","[""l""]","","","","","","null","","","null","","","","","","","","","","<p>The experiment will resume in 28 seconds. ",""
"","html-keyboard-response","307","519907","0.0-2.0-4.99-1.99-3.99","d5l","[""l""]","","","","","","null","","","null","","","","","","","","","","<p>The experiment will resume in 27 seconds. ",""
"","html-keyboard-response","308","520910","0.0-2.0-4.99-1.99-4.99","d5l","[""l""]","","","","","","null","","","null","","","","","","","","","","<p>The experiment will resume in 26 seconds. ",""
"","html-keyboard-response","309","521912","0.0-2.0-4.99-1.99-5.99","d5l","[""l""]","","","","","","null","","","null","","","","","","","","","","<p>The experiment will resume in 25 seconds. ",""
"","html-keyboard-response","310","522914","0.0-2.0-4.99-1.99-6.99","d5l","[""l""]","","","","","","null","","","null","","","","","","","","","","<p>The experiment will resume in 24 seconds. ",""
"","html-keyboard-response","311","523915","0.0-2.0-4.99-1.99-7.99","d5l","[""l""]","","","","","","null","","","null","","","","","","","","","","<p>The experiment will resume in 23 seconds. ",""
"","html-keyboard-response","312","524917","0.0-2.0-4.99-1.99-8.99","d5l","[""l""]","","","","","","null","","","null","","","","","","","","","","<p>The experiment will resume in 22 seconds. ",""
"","html-keyboard-response","313","525919","0.0-2.0-4.99-1.99-9.99","d5l","[""l""]","","","","","","null","","","null","","","","","","","","","","<p>The experiment will resume in 21 seconds. ",""
"","html-keyboard-response","314","526921","0.0-2.0-4.99-1.99-10.99","d5l","[""l""]","","","","","","null","","","null","","","","","","","","","","<p>The experiment will resume in 20 seconds. ",""
"","html-keyboard-response","315","527922","0.0-2.0-4.99-1.99-11.99","d5l","[""l""]","","","","","","null","","","null","","","","","","","","","","<p>The experiment will resume in 19 seconds. ",""
"","html-keyboard-response","316","528925","0.0-2.0-4.99-1.99-12.99","d5l","[""l""]","","","","","","null","","","null","","","","","","","","","","<p>The experiment will resume in 18 seconds. ",""
"","html-keyboard-response","317","529926","0.0-2.0-4.99-1.99-13.99","d5l","[""l""]","","","","","","null","","","null","","","","","","","","","","<p>The experiment will resume in 17 seconds. ",""
"","html-keyboard-response","318","530928","0.0-2.0-4.99-1.99-14.99","d5l","[""l""]","","","","","","null","","","null","","","","","","","","","","<p>The experiment will resume in 16 seconds. ",""
"","html-keyboard-response","319","531931","0.0-2.0-4.99-1.99-15.99","d5l","[""l""]","","","","","","null","","","null","","","","","","","","","","<p>The experiment will resume in 15 seconds. ",""
"","html-keyboard-response","320","532932","0.0-2.0-4.99-1.99-16.99","d5l","[""l""]","","","","","","null","","","null","","","","","","","","","","<p>The experiment will resume in 14 seconds. ",""
"","html-keyboard-response","321","533934","0.0-2.0-4.99-1.99-17.99","d5l","[""l""]","","","","","","null","","","null","","","","","","","","","","<p>The experiment will resume in 13 seconds. ",""
"","html-keyboard-response","322","534935","0.0-2.0-4.99-1.99-18.99","d5l","[""l""]","","","","","","null","","","null","","","","","","","","","","<p>The experiment will resume in 12 seconds. ",""
"","html-keyboard-response","323","535937","0.0-2.0-4.99-1.99-19.99","d5l","[""l""]","","","","","","null","","","null","","","","","","","","","","<p>The experiment will resume in 11 seconds. ",""
"","html-keyboard-response","324","536940","0.0-2.0-4.99-1.99-20.99","d5l","[""l""]","","","","","","null","","","null","","","","","","","","","","<p>The experiment will resume in 10 seconds. ",""
"","html-keyboard-response","325","537942","0.0-2.0-4.99-1.99-21.99","d5l","[""l""]","","","","","","null","","","null","","","","","","","","","","<p>The experiment will resume in 9 seconds. ",""
"","html-keyboard-response","326","538943","0.0-2.0-4.99-1.99-22.99","d5l","[""l""]","","","","","","null","","","null","","","","","","","","","","<p>The experiment will resume in 8 seconds. ",""
"","html-keyboard-response","327","539944","0.0-2.0-4.99-1.99-23.99","d5l","[""l""]","","","","","","null","","","null","","","","","","","","","","<p>The experiment will resume in 7 seconds. ",""
"","html-keyboard-response","328","540946","0.0-2.0-4.99-1.99-24.99","d5l","[""l""]","","","","","","null","","","null","","","","","","","","","","<p>The experiment will resume in 6 seconds. ",""
"","html-keyboard-response","329","541949","0.0-2.0-4.99-1.99-25.99","d5l","[""l""]","","","","","","null","","","null","","","","","","","","","","<p>The experiment will resume in 5 seconds. ",""
"","html-keyboard-response","330","542950","0.0-2.0-4.99-1.99-26.99","d5l","[""l""]","","","","","","null","","","null","","","","","","","","","","<p>The experiment will resume in 4 seconds. ",""
"","html-keyboard-response","331","543952","0.0-2.0-4.99-1.99-27.99","d5l","[""l""]","","","","","","null","","","null","","","","","","","","","","<p>The experiment will resume in 3 seconds. ",""
"","html-keyboard-response","332","544953","0.0-2.0-4.99-1.99-28.99","d5l","[""l""]","","","","","","null","","","null","","","","","","","","","","<p>The experiment will resume in 2 seconds. ",""
"","html-keyboard-response","333","545955","0.0-2.0-4.99-1.99-29.99","d5l","[""l""]","","","","","","null","","","null","","","","","","","","","","<p>The experiment will resume in 1 seconds. ",""
"","psychophysics","334","550879","0.0-2.0-0.100","d5l","[""l""]","","","","","","4219","key","z","z","16.672942372881096","912","513","1","1","0","1","0","true","",""
"","psychophysics","335","551886","0.0-2.0-1.100","d5l","[""l""]","","","","","","null","key","null","null","16.671881355931273","912","513","1","1","0","1","0","","",""
"","psychophysics","336","552892","0.0-2.0-2.100-0.100","d5l","[""l""]","","","","","","null","key","null","null","16.672683333331953","912","513","1","1","0","1","0","","",""
"","psychophysics","337","554042","0.0-2.0-0.101","d5l","[""l""]","","","","","","447","key","m","m","16.671500000000165","912","513","1","0","1","1","0","false","",""
"","psychophysics","338","555049","0.0-2.0-1.101","d5l","[""l""]","","","","","","null","key","null","null","16.671457627119292","912","513","1","0","1","1","0","","",""
"","psychophysics","339","556055","0.0-2.0-3.101-0.101","d5l","[""l""]","","","","","","null","key","null","null","16.673135593219786","912","513","1","0","1","1","0","","",""
"","psychophysics","340","557719","0.0-2.0-0.102","d5l","[""l""]","","","","","","960","key","z","z","16.671999999999322","912","513","2","1","1","0","1","false","",""
"","psychophysics","341","558726","0.0-2.0-1.102","d5l","[""l""]","","","","","","null","key","null","null","16.67278333333282","912","513","2","1","1","0","1","","",""
"","psychophysics","342","559737","0.0-2.0-3.102-0.102","d5l","[""l""]","","","","","","null","key","null","null","16.671694915254317","912","513","2","1","1","0","1","","",""
"","psychophysics","343","560670","0.0-2.0-0.103","d5l","[""l""]","","","","","","230","key","m","m","16.672036363635296","912","513","2","1","0","1","0","true","",""
"","psychophysics","344","561674","0.0-2.0-1.103","d5l","[""l""]","","","","","","null","key","null","null","16.67305084745897","912","513","2","1","0","1","0","","",""
"","psychophysics","345","562682","0.0-2.0-2.103-0.103","d5l","[""l""]","","","","","","null","key","null","null","16.67150000000062","912","513","2","1","0","1","0","","",""
"","psychophysics","346","563439","0.0-2.0-0.104","d5l","[""l""]","","","","","","53","key","z","z","16.67161363636313","912","513","1","0","0","1","0","true","",""
"","psychophysics","347","564455","0.0-2.0-1.104","d5l","[""l""]","","","","","","null","key","null","null","16.672550000000047","912","513","1","0","0","1","0","","",""
"","psychophysics","348","565465","0.0-2.0-2.104-0.104","d5l","[""l""]","","","","","","null","key","null","null","16.671883333332758","912","513","1","0","0","1","0","","",""
"","psychophysics","349","566334","0.0-2.0-0.105","d5l","[""l""]","","","","","","167","key","m","m","16.67256862745054","912","513","1","1","0","1","0","false","",""
"","psychophysics","350","567342","0.0-2.0-1.105","d5l","[""l""]","","","","","","null","key","null","null","16.67250847457553","912","513","1","1","0","1","0","","",""
"","psychophysics","351","568352","0.0-2.0-3.105-0.105","d5l","[""l""]","","","","","","null","key","null","null","16.671566666666575","912","513","1","1","0","1","0","","",""
"","psychophysics","352","569264","0.0-2.0-0.106","d5l","[""l""]","","","","","","209","key","m","m","16.672166666667046","912","513","2","1","1","1","1","true","",""
"","psychophysics","353","570271","0.0-2.0-1.106","d5l","[""l""]","","","","","","null","key","null","null","16.671949152542688","912","513","2","1","1","1","1","","",""
"","psychophysics","354","571280","0.0-2.0-2.106-0.106","d5l","[""l""]","","","","","","null","key","null","null","16.67224999999938","912","513","2","1","1","1","1","","",""
"","psychophysics","355","572248","0.0-2.0-0.107","d5l","[""l""]","","","","","","263","key","m","m","16.671982456141624","912","513","2","1","1","0","1","true","",""
"","psychophysics","356","573256","0.0-2.0-1.107","d5l","[""l""]","","","","","","null","key","null","null","16.67259322033832","912","513","2","1","1","0","1","","",""
"","psychophysics","357","574266","0.0-2.0-2.107-0.107","d5l","[""l""]","","","","","","null","key","null","null","16.672033333332124","912","513","2","1","1","0","1","","",""
"","psychophysics","358","575015","0.0-2.0-0.108","d5l","[""l""]","","","","","","45","key","m","m","16.672613636363","912","513","2","1","0","1","1","true","",""
"","psychophysics","359","576023","0.0-2.0-1.108","d5l","[""l""]","","","","","","null","key","null","null","16.671508474575386","912","513","2","1","0","1","1","","",""
"","psychophysics","360","577032","0.0-2.0-2.108-0.108","d5l","[""l""]","","","","","","null","key","null","null","16.672299999999815","912","513","2","1","0","1","1","","",""
"","psychophysics","361","577942","0.0-2.0-0.109","d5l","[""l""]","","","","","","206","key","z","z","16.67167924528388","912","513","2","1","1","1","1","false","",""
"","psychophysics","362","578951","0.0-2.0-1.109","d5l","[""l""]","","","","","","null","key","null","null","16.672533333332588","912","513","2","1","1","1","1","","",""
"","psychophysics","363","579960","0.0-2.0-3.109-0.109","d5l","[""l""]","","","","","","null","key","null","null","16.67203389830548","912","513","2","1","1","1","1","","",""
"","psychophysics","364","580686","0.0-2.0-0.110","d5l","[""l""]","","","","","","19","key","z","z","16.672906976742777","912","513","2","0","0","0","0","false","",""
"","psychophysics","365","581694","0.0-2.0-1.110","d5l","[""l""]","","","","","","null","key","null","null","16.671796610170453","912","513","2","0","0","0","0","","",""
"","psychophysics","366","582703","0.0-2.0-3.110-0.110","d5l","[""l""]","","","","","","null","key","null","null","16.67178333333383","912","513","2","0","0","0","0","","",""
"","psychophysics","367","583935","0.0-2.0-0.111","d5l","[""l""]","","","","","","528","key","z","z","16.67193150684901","912","513","1","1","0","1","1","true","",""
"","psychophysics","368","584942","0.0-2.0-1.111","d5l","[""l""]","","","","","","null","key","null","null","16.671711864407662","912","513","1","1","0","1","1","","",""
"","psychophysics","369","585952","0.0-2.0-2.111-0.111","d5l","[""l""]","","","","","","null","key","null","null","16.672133333334934","912","513","1","1","0","1","1","","",""
"","psychophysics","370","587431","0.0-2.0-0.112","d5l","[""l""]","","","","","","775","key","m","m","16.672586206895375","912","513","2","0","0","1","1","true","",""
"","psychophysics","371","588438","0.0-2.0-1.112","d5l","[""l""]","","","","","","null","key","null","null","16.672266666666836","912","513","2","0","0","1","1","","",""
"","psychophysics","372","589448","0.0-2.0-2.112-0.112","d5l","[""l""]","","","","","","null","key","null","null","16.671559322033456","912","513","2","0","0","1","1","","",""
"","psychophysics","373","590570","0.0-2.0-0.113","d5l","[""l""]","","","","","","418","key","z","z","16.671686567164567","912","513","2","0","0","1","0","false","",""
"","psychophysics","374","591578","0.0-2.0-1.113","d5l","[""l""]","","","","","","null","key","null","null","16.671559322033456","912","513","2","0","0","1","0","","",""
"","psychophysics","375","592587","0.0-2.0-3.113-0.113","d5l","[""l""]","","","","","","null","key","null","null","16.672366666665766","912","513","2","0","0","1","0","","",""
"","psychophysics","376","593382","0.0-2.0-0.114","d5l","[""l""]","","","","","","91","key","m","m","16.671086956521638","912","513","1","1","1","1","1","false","",""
"","psychophysics","377","594391","0.0-2.0-1.114","d5l","[""l""]","","","","","","null","key","null","null","16.672683333331953","912","513","1","1","1","1","1","","",""
"","psychophysics","378","595401","0.0-2.0-3.114-0.114","d5l","[""l""]","","","","","","null","key","null","null","16.673593220340436","912","513","1","1","1","1","1","","",""
"","psychophysics","379","596430","0.0-2.0-0.115","d5l","[""l""]","","","","","","325","key","m","m","16.67165573770524","912","513","2","0","1","0","1","true","",""
"","psychophysics","380","597448","0.0-2.0-1.115","d5l","[""l""]","","","","","","null","key","null","null","16.67223333333192","912","513","2","0","1","0","1","","",""
"","psychophysics","381","598459","0.0-2.0-2.115-0.115","d5l","[""l""]","","","","","","null","key","null","null","16.67231666666727","912","513","2","0","1","0","1","","",""
"","psychophysics","382","599526","0.0-2.0-0.116","d5l","[""l""]","","","","","","364","key","m","m","16.671936507935502","912","513","2","0","0","1","0","true","",""
"","psychophysics","383","600534","0.0-2.0-1.116","d5l","[""l""]","","","","","","null","key","null","null","16.672389830508017","912","513","2","0","0","1","0","","",""
"","psychophysics","384","601543","0.0-2.0-2.116-0.116","d5l","[""l""]","","","","","","null","key","null","null","16.67214999999851","912","513","2","0","0","1","0","","",""
"","psychophysics","385","602446","0.0-2.0-0.117","d5l","[""l""]","","","","","","200","key","m","m","16.673226415094007","912","513","1","0","0","1","0","false","",""
"","psychophysics","386","603457","0.0-2.0-1.117","d5l","[""l""]","","","","","","null","key","null","null","16.672850000000714","912","513","1","0","0","1","0","","",""
"","psychophysics","387","604465","0.0-2.0-3.117-0.117","d5l","[""l""]","","","","","","null","key","null","null","16.67247457627278","912","513","1","0","0","1","0","","",""
"","psychophysics","388","605382","0.0-2.0-0.118","d5l","[""l""]","","","","","","213","key","m","m","16.673018518518397","912","513","1","0","1","1","1","false","",""
"","psychophysics","389","606391","0.0-2.0-1.118","d5l","[""l""]","","","","","","null","key","null","null","16.671950000000653","912","513","1","0","1","1","1","","",""
"","psychophysics","390","607400","0.0-2.0-3.118-0.118","d5l","[""l""]","","","","","","null","key","null","null","16.671644067796247","912","513","1","0","1","1","1","","",""
"","psychophysics","391","608494","0.0-2.0-0.119","d5l","[""l""]","","","","","","390","key","m","m","16.672553846152283","912","513","2","0","0","1","1","true","",""
"","psychophysics","392","609502","0.0-2.0-1.119","d5l","[""l""]","","","","","","null","key","null","null","16.6713728813565","912","513","2","0","0","1","1","","",""
"","psychophysics","393","610521","0.0-2.0-2.119-0.119","d5l","[""l""]","","","","","","null","key","null","null","16.672483333332153","912","513","2","0","0","1","1","","",""
"","psychophysics","394","611615","0.0-2.0-0.120","d5l","[""l""]","","","","","","388","key","z","z","16.67287692307817","912","513","1","0","0","1","1","true","",""
"","psychophysics","395","612622","0.0-2.0-1.120","d5l","[""l""]","","","","","","null","key","null","null","16.672000000000757","912","513","1","0","0","1","1","","",""
"","psychophysics","396","613632","0.0-2.0-2.120-0.120","d5l","[""l""]","","","","","","null","key","null","null","16.671199999999953","912","513","1","0","0","1","1","","",""
"","psychophysics","397","614718","0.0-2.0-0.121","d5l","[""l""]","","","","","","382","key","m","m","16.6722343750007","912","513","2","1","1","1","1","true","",""
"","psychophysics","398","615728","0.0-2.0-1.121","d5l","[""l""]","","","","","","null","key","null","null","16.67326666666583","912","513","2","1","1","1","1","","",""
"","psychophysics","399","616737","0.0-2.0-2.121-0.121","d5l","[""l""]","","","","","","null","key","null","null","16.671440677965943","912","513","2","1","1","1","1","","",""
"","psychophysics","400","617646","0.0-2.0-0.122","d5l","[""l""]","","","","","","205","key","z","z","16.670703703703584","912","513","2","0","1","1","1","false","",""
"","psychophysics","401","618653","0.0-2.0-1.122","d5l","[""l""]","","","","","","null","key","null","null","16.672372881356644","912","513","2","0","1","1","1","","",""
"","psychophysics","402","619673","0.0-2.0-3.122-0.122","d5l","[""l""]","","","","","","null","key","null","null","16.672016666666604","912","513","2","0","1","1","1","","",""
"","psychophysics","403","620534","0.0-2.0-0.123","d5l","[""l""]","","","","","","155","key","m","m","16.673333333334977","912","513","2","1","0","0","0","true","",""
"","psychophysics","404","621542","0.0-2.0-1.123","d5l","[""l""]","","","","","","null","key","null","null","16.67220338983106","912","513","2","1","0","0","0","","",""
"","psychophysics","405","622549","0.0-2.0-2.123-0.123","d5l","[""l""]","","","","","","null","key","null","null","16.669966666668188","912","513","2","1","0","0","0","","",""
"","psychophysics","406","623583","0.0-2.0-0.124","d5l","[""l""]","","","","","","331","key","z","z","16.673786885246297","912","513","1","1","1","0","1","true","",""
"","psychophysics","407","624590","0.0-2.0-1.124","d5l","[""l""]","","","","","","null","key","null","null","16.671525423728735","912","513","1","1","1","0","1","","",""
"","psychophysics","408","625599","0.0-2.0-2.124-0.124","d5l","[""l""]","","","","","","null","key","null","null","16.672950000001585","912","513","1","1","1","0","1","","",""
"","psychophysics","409","626342","0.0-2.0-0.125","d5l","[""l""]","","","","","","39","key","m","m","16.672116279071414","912","513","1","1","1","0","1","false","",""
"","psychophysics","410","627351","0.0-2.0-1.125","d5l","[""l""]","","","","","","null","key","null","null","16.672016666666604","912","513","1","1","1","0","1","","",""
"","psychophysics","411","628359","0.0-2.0-3.125-0.125","d5l","[""l""]","","","","","","null","key","null","null","16.672745762712527","912","513","1","1","1","0","1","","",""
"","psychophysics","412","629126","0.0-2.0-0.126","d5l","[""l""]","","","","","","61","key","m","m","16.67348888888955","912","513","2","1","0","1","1","true","",""
"","psychophysics","413","630134","0.0-2.0-1.126","d5l","[""l""]","","","","","","null","key","null","null","16.6720666666651","912","513","2","1","0","1","1","","",""
"","psychophysics","414","631144","0.0-2.0-2.126-0.126","d5l","[""l""]","","","","","","null","key","null","null","16.6727627118639","912","513","2","1","0","1","1","","",""
"","psychophysics","415","632006","0.0-2.0-0.127","d5l","[""l""]","","","","","","157","key","z","z","16.673352941176763","912","513","1","1","0","1","0","true","",""
"","psychophysics","416","633016","0.0-2.0-1.127","d5l","[""l""]","","","","","","null","key","null","null","16.671833333334266","912","513","1","1","0","1","0","","",""
"","psychophysics","417","634025","0.0-2.0-2.127-0.127","d5l","[""l""]","","","","","","null","key","null","null","16.67259322033832","912","513","1","1","0","1","0","","",""
"","psychophysics","418","634968","0.0-2.0-0.128","d5l","[""l""]","","","","","","238","key","m","m","16.672607142856577","912","513","1","0","1","1","0","false","",""
"","psychophysics","419","635975","0.0-2.0-1.128","d5l","[""l""]","","","","","","null","key","null","null","16.67210169491492","912","513","1","0","1","1","0","","",""
"","psychophysics","420","636985","0.0-2.0-3.128-0.128","d5l","[""l""]","","","","","","null","key","null","null","16.67204999999958","912","513","1","0","1","1","0","","",""
"","psychophysics","421","638054","0.0-2.0-0.129","d5l","[""l""]","","","","","","366","key","m","m","16.671301587301837","912","513","2","1","1","1","1","true","",""
"","psychophysics","422","639062","0.0-2.0-1.129","d5l","[""l""]","","","","","","null","key","null","null","16.67166101694762","912","513","2","1","1","1","1","","",""
"","psychophysics","423","640071","0.0-2.0-2.129-0.129","d5l","[""l""]","","","","","","null","key","null","null","16.67298333333262","912","513","2","1","1","1","1","","",""
"","psychophysics","424","641120","0.0-2.0-0.130","d5l","[""l""]","","","","","","345","key","z","z","16.671080645162522","912","513","2","1","1","0","1","false","",""
"","psychophysics","425","642127","0.0-2.0-1.130","d5l","[""l""]","","","","","","null","key","null","null","16.671423728812595","912","513","2","1","1","0","1","","",""
"","psychophysics","426","643136","0.0-2.0-3.130-0.130","d5l","[""l""]","","","","","","null","key","null","null","16.672466666666637","912","513","2","1","1","0","1","","",""
"","psychophysics","427","644030","0.0-2.0-0.131","d5l","[""l""]","","","","","","190","key","m","m","16.67330769230746","912","513","2","1","1","1","1","true","",""
"","psychophysics","428","645039","0.0-2.0-1.131","d5l","[""l""]","","","","","","null","key","null","null","16.673083333333487","912","513","2","1","1","1","1","","",""
"","psychophysics","429","646047","0.0-2.0-2.131-0.131","d5l","[""l""]","","","","","","null","key","null","null","16.672000000000757","912","513","2","1","1","1","1","","",""
"","psychophysics","430","646982","0.0-2.0-0.132","d5l","[""l""]","","","","","","228","key","z","z","16.672327272727323","912","513","1","1","1","1","0","true","",""
"","psychophysics","431","647990","0.0-2.0-1.132","d5l","[""l""]","","","","","","null","key","null","null","16.67198333333169","912","513","1","1","1","1","0","","",""
"","psychophysics","432","648999","0.0-2.0-2.132-0.132","d5l","[""l""]","","","","","","null","key","null","null","16.672983050847552","912","513","1","1","1","1","0","","",""
"","psychophysics","433","650230","0.0-2.0-0.133","d5l","[""l""]","","","","","","525","key","m","m","16.672397260273463","912","513","1","1","1","0","1","false","",""
"","psychophysics","434","651239","0.0-2.0-1.133","d5l","[""l""]","","","","","","null","key","null","null","16.673216666667333","912","513","1","1","1","0","1","","",""
"","psychophysics","435","652247","0.0-2.0-3.133-0.133","d5l","[""l""]","","","","","","null","key","null","null","16.671661016949596","912","513","1","1","1","0","1","","",""
"","psychophysics","436","653134","0.0-2.0-0.134","d5l","[""l""]","","","","","","185","key","m","m","16.67290384615458","912","513","1","1","1","1","1","false","",""
"","psychophysics","437","654142","0.0-2.0-1.134","d5l","[""l""]","","","","","","null","key","null","null","16.67269999999941","912","513","1","1","1","1","1","","",""
"","psychophysics","438","655151","0.0-2.0-3.134-0.134","d5l","[""l""]","","","","","","null","key","null","null","16.67137288135453","912","513","1","1","1","1","1","","",""
"","psychophysics","439","655903","0.0-2.0-0.135","d5l","[""l""]","","","","","","45","key","m","m","16.67218181818184","912","513","1","1","0","1","0","false","",""
"","psychophysics","440","656910","0.0-2.0-1.135","d5l","[""l""]","","","","","","null","key","null","null","16.67198333333363","912","513","1","1","0","1","0","","",""
"","psychophysics","441","657918","0.0-2.0-3.135-0.135","d5l","[""l""]","","","","","","null","key","null","null","16.672338983051922","912","513","1","1","0","1","0","","",""
"","psychophysics","442","658718","0.0-2.0-0.136","d5l","[""l""]","","","","","","94","key","m","m","16.672382978722453","912","513","1","0","1","1","1","false","",""
"","psychophysics","443","659736","0.0-2.0-1.136","d5l","[""l""]","","","","","","null","key","null","null","16.673250000000312","912","513","1","0","1","1","1","","",""
"","psychophysics","444","660746","0.0-2.0-3.136-0.136","d5l","[""l""]","","","","","","null","key","null","null","16.67204999999958","912","513","1","0","1","1","1","","",""
"","psychophysics","445","661478","0.0-2.0-0.137","d5l","[""l""]","","","","","","28","key","m","m","16.673976744186717","912","513","2","1","0","0","0","true","",""
"","psychophysics","446","662497","0.0-2.0-1.137","d5l","[""l""]","","","","","","null","key","null","null","16.672849999998775","912","513","2","1","0","0","0","","",""
"","psychophysics","447","663505","0.0-2.0-2.137-0.137","d5l","[""l""]","","","","","","null","key","null","null","16.672694915254457","912","513","2","1","0","0","0","","",""
"","psychophysics","448","664254","0.0-2.0-0.138","d5l","[""l""]","","","","","","44","key","z","z","16.672318181816742","912","513","2","1","0","0","0","false","",""
"","psychophysics","449","665263","0.0-2.0-1.138","d5l","[""l""]","","","","","","null","key","null","null","16.671633333334466","912","513","2","1","0","0","0","","",""
"","psychophysics","450","666271","0.0-2.0-3.138-0.138","d5l","[""l""]","","","","","","null","key","null","null","16.673016949152274","912","513","2","1","0","0","0","","",""
"","psychophysics","451","667318","0.0-2.0-0.139","d5l","[""l""]","","","","","","341","key","z","z","16.67267741935493","912","513","1","0","1","1","1","true","",""
"","psychophysics","452","668327","0.0-2.0-1.139","d5l","[""l""]","","","","","","null","key","null","null","16.673283333333288","912","513","1","0","1","1","1","","",""
"","psychophysics","453","669336","0.0-2.0-2.139-0.139","d5l","[""l""]","","","","","","null","key","null","null","16.671949152542688","912","513","1","0","1","1","1","","",""
"","psychophysics","454","671975","0.0-2.0-0.140","d5l","[""l""]","","","","","","1935","key","m","m","16.672152866242353","912","513","2","0","1","0","1","true","",""
"","psychophysics","455","672982","0.0-2.0-1.140","d5l","[""l""]","","","","","","null","key","null","null","16.673133333333922","912","513","2","0","1","0","1","","",""
"","psychophysics","456","674001","0.0-2.0-2.140-0.140","d5l","[""l""]","","","","","","null","key","null","null","16.673016666667536","912","513","2","0","1","0","1","","",""
"","psychophysics","457","683233","0.0-2.0-0.141","d5l","[""l""]","","","","","","8527","key","z","z","16.67191681735976","912","513","2","0","1","1","0","false","",""
"","psychophysics","458","684240","0.0-2.0-1.141","d5l","[""l""]","","","","","","null","key","null","null","16.671559322033456","912","513","2","0","1","1","0","","",""
"","psychophysics","459","685249","0.0-2.0-3.141-0.141","d5l","[""l""]","","","","","","null","key","null","null","16.672566666665563","912","513","2","0","1","1","0","","",""
"","psychophysics","460","689294","0.0-2.0-0.142","d5l","[""l""]","","","","","","3342","key","z","z","16.671950207468647","912","513","2","1","1","0","1","false","",""
"","psychophysics","461","690303","0.0-2.0-1.142","d5l","[""l""]","","","","","","null","key","null","null","16.673033333333056","912","513","2","1","1","0","1","","",""
"","psychophysics","462","691311","0.0-2.0-3.142-0.142","d5l","[""l""]","","","","","","null","key","null","null","16.671864406779896","912","513","2","1","1","0","1","","",""
"","psychophysics","463","700447","0.0-2.0-0.143","d5l","[""l""]","","","","","","8432","key","z","z","16.67189031078606","912","513","1","0","1","1","1","true","",""
"","psychophysics","464","701455","0.0-2.0-1.143","d5l","[""l""]","","","","","","null","key","null","null","16.67306666666603","912","513","1","0","1","1","1","","",""
"","psychophysics","465","702464","0.0-2.0-2.143-0.143","d5l","[""l""]","","","","","","null","key","null","null","16.67172881356101","912","513","1","0","1","1","1","","",""
"","psychophysics","466","704478","0.0-2.0-0.144","d5l","[""l""]","","","","","","1311","key","m","m","16.672016666666604","912","513","1","0","1","1","0","false","",""
"","psychophysics","467","705489","0.0-2.0-1.144","d5l","[""l""]","","","","","","null","key","null","null","16.672616666666","912","513","1","0","1","1","0","","",""
"","psychophysics","468","706497","0.0-2.0-3.144-0.144","d5l","[""l""]","","","","","","null","key","null","null","16.67245762711943","912","513","1","0","1","1","0","","",""
"","psychophysics","469","709258","0.0-2.0-0.145","d5l","[""l""]","","","","","","2057","key","m","m","16.672109090908656","912","513","2","1","0","1","1","true","",""
"","psychophysics","470","710265","0.0-2.0-1.145","d5l","[""l""]","","","","","","null","key","null","null","16.67167796610097","912","513","2","1","0","1","1","","",""
"","psychophysics","471","711275","0.0-2.0-2.145-0.145","d5l","[""l""]","","","","","","null","key","null","null","16.67280000000028","912","513","2","1","0","1","1","","",""
"","psychophysics","472","713982","0.0-2.0-0.146","d5l","[""l""]","","","","","","2004","key","z","z","16.671832298136877","912","513","1","1","1","1","1","true","",""
"","psychophysics","473","714992","0.0-2.0-1.146","d5l","[""l""]","","","","","","null","key","null","null","16.672683333331953","912","513","1","1","1","1","1","","",""
"","psychophysics","474","716000","0.0-2.0-2.146-0.146","d5l","[""l""]","","","","","","null","key","null","null","16.672406779661365","912","513","1","1","1","1","1","","",""
"","psychophysics","475","717646","0.0-2.0-0.147","d5l","[""l""]","","","","","","943","key","z","z","16.672346938775654","912","513","1","0","0","1","1","true","",""
"","psychophysics","476","718653","0.0-2.0-1.147","d5l","[""l""]","","","","","","null","key","null","null","16.672186440677713","912","513","1","0","0","1","1","","",""
"","psychophysics","477","719672","0.0-2.0-2.147-0.147","d5l","[""l""]","","","","","","null","key","null","null","16.672733333334328","912","513","1","0","0","1","1","","",""
"","psychophysics","478","720902","0.0-2.0-0.148","d5l","[""l""]","","","","","","525","key","m","m","16.672712328767226","912","513","2","1","0","1","1","true","",""
"","psychophysics","479","721911","0.0-2.0-1.148","d5l","[""l""]","","","","","","null","key","null","null","16.67278333333282","912","513","2","1","0","1","1","","",""
"","psychophysics","480","722919","0.0-2.0-2.148-0.148","d5l","[""l""]","","","","","","null","key","null","null","16.672745762710555","912","513","2","1","0","1","1","","",""
"","psychophysics","481","724398","0.0-2.0-0.149","d5l","[""l""]","","","","","","776","key","z","z","16.672727272728068","912","513","2","0","0","0","0","false","",""
"","psychophysics","482","725406","0.0-2.0-1.149","d5l","[""l""]","","","","","","null","key","null","null","16.671491525424013","912","513","2","0","0","0","0","","",""
"","psychophysics","483","726415","0.0-2.0-3.149-0.149","d5l","[""l""]","","","","","","null","key","null","null","16.672649999998974","912","513","2","0","0","0","0","","",""
"","psychophysics","484","728113","0.0-2.0-0.150","d5l","[""l""]","","","","","","994","key","m","m","16.67127722772276","912","513","2","0","0","1","1","true","",""
"","psychophysics","485","729120","0.0-2.0-1.150","d5l","[""l""]","","","","","","null","key","null","null","16.67174576271041","912","513","2","0","0","1","1","","",""
"","psychophysics","486","730130","0.0-2.0-2.150-0.150","d5l","[""l""]","","","","","","null","key","null","null","16.6729666666671","912","513","2","0","0","1","1","","",""
"","psychophysics","487","731614","0.0-2.0-0.151","d5l","[""l""]","","","","","","780","key","z","z","16.67212500000129","912","513","1","1","1","1","1","true","",""
"","psychophysics","488","732621","0.0-2.0-1.151","d5l","[""l""]","","","","","","null","key","null","null","16.67147457627264","912","513","1","1","1","1","1","","",""
"","psychophysics","489","733631","0.0-2.0-2.151-0.151","d5l","[""l""]","","","","","","null","key","null","null","16.673116666666466","912","513","1","1","1","1","1","","",""
"","psychophysics","490","735070","0.0-2.0-0.152","d5l","[""l""]","","","","","","736","key","z","z","16.672447058822794","912","513","1","1","1","1","1","true","",""
"","psychophysics","491","736078","0.0-2.0-1.152","d5l","[""l""]","","","","","","null","key","null","null","16.67305084745897","912","513","1","1","1","1","1","","",""
"","psychophysics","492","737086","0.0-2.0-2.152-0.152","d5l","[""l""]","","","","","","null","key","null","null","16.671383333332294","912","513","1","1","1","1","1","","",""
"","psychophysics","493","738767","0.0-2.0-0.153","d5l","[""l""]","","","","","","976","key","m","m","16.67235999999917","912","513","1","0","1","0","1","false","",""
"","psychophysics","494","739775","0.0-2.0-1.153","d5l","[""l""]","","","","","","null","key","null","null","16.672406779661365","912","513","1","0","1","0","1","","",""
"","psychophysics","495","740785","0.0-2.0-3.153-0.153","d5l","[""l""]","","","","","","null","key","null","null","16.672400000000682","912","513","1","0","1","0","1","","",""
"","psychophysics","496","742525","0.0-2.0-0.154","d5l","[""l""]","","","","","","1038","key","z","z","16.67163106796187","912","513","1","0","0","1","1","true","",""
"","psychophysics","497","743535","0.0-2.0-1.154","d5l","[""l""]","","","","","","null","key","null","null","16.67334999999924","912","513","1","0","0","1","1","","",""
"","psychophysics","498","744543","0.0-2.0-2.154-0.154","d5l","[""l""]","","","","","","null","key","null","null","16.67171186440569","912","513","1","0","0","1","1","","",""
"","psychophysics","499","745952","0.0-2.0-0.155","d5l","[""l""]","","","","","","705","key","z","z","16.67249999999989","912","513","1","0","0","1","1","true","",""
"","psychophysics","500","746959","0.0-2.0-1.155","d5l","[""l""]","","","","","","null","key","null","null","16.672474576270808","912","513","1","0","0","1","1","","",""
"","psychophysics","501","747968","0.0-2.0-2.155-0.155","d5l","[""l""]","","","","","","null","key","null","null","16.67269999999941","912","513","1","0","0","1","1","","",""
"","psychophysics","502","750821","0.0-2.0-0.156","d5l","[""l""]","","","","","","2150","key","z","z","16.672341176470304","912","513","2","1","0","0","1","false","",""
"","psychophysics","503","751828","0.0-2.0-1.156","d5l","[""l""]","","","","","","null","key","null","null","16.67210169491492","912","513","2","1","0","0","1","","",""
"","psychophysics","504","752838","0.0-2.0-3.156-0.156","d5l","[""l""]","","","","","","null","key","null","null","16.673333333333723","912","513","2","1","0","0","1","","",""
"","psychophysics","505","754789","0.0-2.0-0.157","d5l","[""l""]","","","","","","1248","key","z","z","16.67143103448325","912","513","2","0","1","0","0","false","",""
"","psychophysics","506","755797","0.0-2.0-1.157","d5l","[""l""]","","","","","","null","key","null","null","16.672491525424157","912","513","2","0","1","0","0","","",""
"","psychophysics","507","756806","0.0-2.0-3.157-0.157","d5l","[""l""]","","","","","","null","key","null","null","16.672583333333023","912","513","2","0","1","0","0","","",""
"","psychophysics","508","759646","0.0-2.0-0.158","d5l","[""l""]","","","","","","2137","key","m","m","16.67217751479289","912","513","2","0","0","1","0","true","",""
"","psychophysics","509","760655","0.0-2.0-1.158","d5l","[""l""]","","","","","","null","key","null","null","16.67359999999947","912","513","2","0","0","1","0","","",""
"","psychophysics","510","761664","0.0-2.0-2.158-0.158","d5l","[""l""]","","","","","","null","key","null","null","16.671847457628523","912","513","2","0","0","1","0","","",""
"","psychophysics","511","764717","0.0-2.0-0.159","d5l","[""l""]","","","","","","2349","key","m","m","16.672225274725122","912","513","1","1","1","0","1","false","",""
"","psychophysics","512","765726","0.0-2.0-1.159","d5l","[""l""]","","","","","","null","key","null","null","16.672400000000682","912","513","1","1","1","0","1","","",""
"","psychophysics","513","766734","0.0-2.0-3.159-0.159","d5l","[""l""]","","","","","","null","key","null","null","16.670949152542548","912","513","1","1","1","0","1","","",""
"","psychophysics","514","768229","0.0-2.0-0.160","d5l","[""l""]","","","","","","788","key","z","z","16.672741573034482","912","513","2","0","0","0","0","false","",""
"","psychophysics","515","769237","0.0-2.0-1.160","d5l","[""l""]","","","","","","null","key","null","null","16.6725593220336","912","513","2","0","0","0","0","","",""
"","psychophysics","516","770246","0.0-2.0-3.160-0.160","d5l","[""l""]","","","","","","null","key","null","null","16.67241666666814","912","513","2","0","0","0","0","","",""
"","psychophysics","517","772486","0.0-2.0-0.161","d5l","[""l""]","","","","","","1536","key","m","m","16.67217293233152","912","513","2","1","1","1","1","true","",""
"","psychophysics","518","773493","0.0-2.0-1.161","d5l","[""l""]","","","","","","null","key","null","null","16.672749999999844","912","513","2","1","1","1","1","","",""
"","psychophysics","519","774502","0.0-2.0-2.161-0.161","d5l","[""l""]","","","","","","null","key","null","null","16.671694915254317","912","513","2","1","1","1","1","","",""
"","psychophysics","520","777133","0.0-2.0-0.162","d5l","[""l""]","","","","","","1928","key","z","z","16.672191082802453","912","513","1","1","1","1","1","true","",""
"","psychophysics","521","778144","0.0-2.0-1.162","d5l","[""l""]","","","","","","null","key","null","null","16.672633333331518","912","513","1","1","1","1","1","","",""
"","psychophysics","522","779152","0.0-2.0-2.162-0.162","d5l","[""l""]","","","","","","null","key","null","null","16.671949152542688","912","513","1","1","1","1","1","","",""
"","psychophysics","523","781765","0.0-2.0-0.163","d5l","[""l""]","","","","","","1909","key","z","z","16.672205128205512","912","513","1","1","0","1","0","true","",""
"","psychophysics","524","782773","0.0-2.0-1.163","d5l","[""l""]","","","","","","null","key","null","null","16.671694915254317","912","513","1","1","0","1","0","","",""
"","psychophysics","525","783782","0.0-2.0-2.163-0.163","d5l","[""l""]","","","","","","null","key","null","null","16.672933333334125","912","513","1","1","0","1","0","","",""
"","psychophysics","526","785838","0.0-2.0-0.164","d5l","[""l""]","","","","","","1353","key","m","m","16.67183606557407","912","513","2","1","1","0","1","true","",""
"","psychophysics","527","786846","0.0-2.0-1.164","d5l","[""l""]","","","","","","null","key","null","null","16.67280000000028","912","513","2","1","1","0","1","","",""
"","psychophysics","528","787856","0.0-2.0-2.164-0.164","d5l","[""l""]","","","","","","null","key","null","null","16.672355932203295","912","513","2","1","1","0","1","","",""
"","psychophysics","529","790053","0.0-2.0-0.165","d5l","[""l""]","","","","","","1493","key","z","z","16.67222900763296","912","513","1","1","1","1","0","true","",""
"","psychophysics","530","791061","0.0-2.0-1.165","d5l","[""l""]","","","","","","null","key","null","null","16.67294915254283","912","513","1","1","1","1","0","","",""
"","psychophysics","531","792070","0.0-2.0-2.165-0.165","d5l","[""l""]","","","","","","null","key","null","null","16.671883333332758","912","513","1","1","1","1","0","","",""
"","psychophysics","532","794433","0.0-2.0-0.166","d5l","[""l""]","","","","","","1660","key","z","z","16.67243262411323","912","513","1","1","0","0","1","true","",""
"","psychophysics","533","795441","0.0-2.0-1.166","d5l","[""l""]","","","","","","null","key","null","null","16.671457627119292","912","513","1","1","0","0","1","","",""
"","psychophysics","534","796451","0.0-2.0-2.166-0.166","d5l","[""l""]","","","","","","null","key","null","null","16.672266666666836","912","513","1","1","0","0","1","","",""
"","psychophysics","535","798261","0.0-2.0-0.167","d5l","[""l""]","","","","","","1106","key","z","z","16.671728971962615","912","513","1","0","1","1","1","true","",""
"","psychophysics","536","799269","0.0-2.0-1.167","d5l","[""l""]","","","","","","null","key","null","null","16.672666666666434","912","513","1","0","1","1","1","","",""
"","psychophysics","537","800277","0.0-2.0-2.167-0.167","d5l","[""l""]","","","","","","null","key","null","null","16.672593220340293","912","513","1","0","1","1","1","","",""
"","psychophysics","538","801902","0.0-2.0-0.168","d5l","[""l""]","","","","","","917","key","m","m","16.672628865979334","912","513","1","1","1","0","1","false","",""
"","psychophysics","539","802909","0.0-2.0-1.168","d5l","[""l""]","","","","","","null","key","null","null","16.67225423728913","912","513","1","1","1","0","1","","",""
"","psychophysics","540","803920","0.0-2.0-3.168-0.168","d5l","[""l""]","","","","","","null","key","null","null","16.673099999999007","912","513","1","1","1","0","1","","",""
"","psychophysics","541","805061","0.0-2.0-0.169","d5l","[""l""]","","","","","","438","key","m","m","16.67179104477626","912","513","1","1","0","0","0","false","",""
"","psychophysics","542","806069","0.0-2.0-1.169","d5l","[""l""]","","","","","","null","key","null","null","16.672350000000247","912","513","1","1","0","0","0","","",""
"","psychophysics","543","807078","0.0-2.0-3.169-0.169","d5l","[""l""]","","","","","","null","key","null","null","16.67132203389646","912","513","1","1","0","0","0","","",""
"","psychophysics","544","807877","0.0-2.0-0.170","d5l","[""l""]","","","","","","96","key","m","m","16.67276595744671","912","513","1","0","0","1","1","false","",""
"","psychophysics","545","808896","0.0-2.0-1.170","d5l","[""l""]","","","","","","null","key","null","null","16.672533333332588","912","513","1","0","0","1","1","","",""
"","psychophysics","546","809906","0.0-2.0-3.170-0.170","d5l","[""l""]","","","","","","null","key","null","null","16.672483333332153","912","513","1","0","0","1","1","","",""
"","psychophysics","547","811182","0.0-2.0-0.171","d5l","[""l""]","","","","","","572","key","m","m","16.672079999999454","912","513","1","0","1","0","1","false","",""
"","psychophysics","548","812190","0.0-2.0-1.171","d5l","[""l""]","","","","","","null","key","null","null","16.67280000000028","912","513","1","0","1","0","1","","",""
"","psychophysics","549","813198","0.0-2.0-3.171-0.171","d5l","[""l""]","","","","","","null","key","null","null","16.671915254237966","912","513","1","0","1","0","1","","",""
"","psychophysics","550","813909","0.0-2.0-0.172","d5l","[""l""]","","","","","","4","key","z","z","16.673547619050147","912","513","2","1","1","1","1","false","",""
"","psychophysics","551","814917","0.0-2.0-1.172","d5l","[""l""]","","","","","","null","key","null","null","16.671694915254317","912","513","2","1","1","1","1","","",""
"","psychophysics","552","815927","0.0-2.0-3.172-0.172","d5l","[""l""]","","","","","","null","key","null","null","16.672100000000015","912","513","2","1","1","1","1","","",""
"","psychophysics","553","817109","0.0-2.0-0.173","d5l","[""l""]","","","","","","479","key","m","m","16.672200000000053","912","513","1","0","0","0","1","false","",""
"","psychophysics","554","818117","0.0-2.0-1.173","d5l","[""l""]","","","","","","null","key","null","null","16.671745762712387","912","513","1","0","0","0","1","","",""
"","psychophysics","555","819126","0.0-2.0-3.173-0.173","d5l","[""l""]","","","","","","null","key","null","null","16.671949999998713","912","513","1","0","0","0","1","","",""
"","psychophysics","556","820013","0.0-2.0-0.174","d5l","[""l""]","","","","","","184","key","z","z","16.671480769228836","912","513","1","0","1","0","1","true","",""
"","psychophysics","557","821020","0.0-2.0-1.174","d5l","[""l""]","","","","","","null","key","null","null","16.673135593221758","912","513","1","0","1","0","1","","",""
"","psychophysics","558","822029","0.0-2.0-2.174-0.174","d5l","[""l""]","","","","","","null","key","null","null","16.67213333333299","912","513","1","0","1","0","1","","",""
"","psychophysics","559","823725","0.0-2.0-0.175","d5l","[""l""]","","","","","","993","key","m","m","16.672326732673543","912","513","1","0","0","0","1","false","",""
"","psychophysics","560","824733","0.0-2.0-1.175","d5l","[""l""]","","","","","","null","key","null","null","16.67101694915199","912","513","1","0","0","0","1","","",""
"","psychophysics","561","825742","0.0-2.0-3.175-0.175","d5l","[""l""]","","","","","","null","key","null","null","16.67271666666687","912","513","1","0","0","0","1","","",""
"","psychophysics","562","827765","0.0-2.0-0.176","d5l","[""l""]","","","","","","1319","key","z","z","16.67198333333266","912","513","2","0","0","1","0","false","",""
"","psychophysics","563","828772","0.0-2.0-1.176","d5l","[""l""]","","","","","","null","key","null","null","16.672745762710555","912","513","2","0","0","1","0","","",""
"","psychophysics","564","829781","0.0-2.0-3.176-0.176","d5l","[""l""]","","","","","","null","key","null","null","16.67198333333363","912","513","2","0","0","1","0","","",""
"","psychophysics","565","831381","0.0-2.0-0.177","d5l","[""l""]","","","","","","897","key","z","z","16.672326315789924","912","513","1","0","0","1","1","true","",""
"","psychophysics","566","832388","0.0-2.0-1.177","d5l","[""l""]","","","","","","null","key","null","null","16.671610169491526","912","513","1","0","0","1","1","","",""
"","psychophysics","567","833398","0.0-2.0-2.177-0.177","d5l","[""l""]","","","","","","null","key","null","null","16.672583333333023","912","513","1","0","0","1","1","","",""
"","psychophysics","568","835422","0.0-2.0-0.178","d5l","[""l""]","","","","","","1319","key","z","z","16.67198333333363","912","513","2","0","0","1","0","false","",""
"","psychophysics","569","836430","0.0-2.0-1.178","d5l","[""l""]","","","","","","null","key","null","null","16.673000000000076","912","513","2","0","0","1","0","","",""
"","psychophysics","570","837438","0.0-2.0-3.178-0.178","d5l","[""l""]","","","","","","null","key","null","null","16.671932203391314","912","513","2","0","0","1","0","","",""
"","psychophysics","571","838741","0.0-2.0-0.179","d5l","[""l""]","","","","","","600","key","m","m","16.67261038960998","912","513","2","1","1","1","1","true","",""
"","psychophysics","572","839750","0.0-2.0-1.179","d5l","[""l""]","","","","","","null","key","null","null","16.672433333331718","912","513","2","1","1","1","1","","",""
"","psychophysics","573","840758","0.0-2.0-2.179-0.179","d5l","[""l""]","","","","","","null","key","null","null","16.672338983051922","912","513","2","1","1","1","1","","",""
"","psychophysics","574","842398","0.0-2.0-0.180","d5l","[""l""]","","","","","","934","key","m","m","16.672540816327565","912","513","2","0","1","1","1","true","",""
"","psychophysics","575","843405","0.0-2.0-1.180","d5l","[""l""]","","","","","","null","key","null","null","16.671474576270665","912","513","2","0","1","1","1","","",""
"","psychophysics","576","844415","0.0-2.0-2.180-0.180","d5l","[""l""]","","","","","","null","key","null","null","16.67334999999924","912","513","2","0","1","1","1","","",""
"","psychophysics","577","846133","0.0-2.0-0.181","d5l","[""l""]","","","","","","1015","key","z","z","16.670960784313387","912","513","1","1","1","1","1","true","",""
"","psychophysics","578","847138","0.0-2.0-1.181","d5l","[""l""]","","","","","","null","key","null","null","16.672169491524365","912","513","1","1","1","1","1","","",""
"","psychophysics","579","848149","0.0-2.0-2.181-0.181","d5l","[""l""]","","","","","","null","key","null","null","16.672483333334092","912","513","1","1","1","1","1","","",""
"","psychophysics","580","850261","0.0-2.0-0.182","d5l","[""l""]","","","","","","1408","key","z","z","16.67197599999979","912","513","1","1","1","1","0","true","",""
