"success","trial_type","trial_index","time_elapsed","internal_node_id","subject","condition","timeout","failed_images","failed_audio","failed_video","view_history","rt","response_type","key_press","response","avg_frame_time","center_x","center_y","outcome","p1conf","p2conf","p1rslt","p2rslt","correct","stimulus","question_order"
"true","fullscreen","0","2670","0.0-0.0-0.0","9dq","[""l""]","","","","","","","","","","","","","","","","","","","",""
"true","preload","1","2675","0.0-0.0-1.0","9dq","[""l""]","false","[]","[]","[]","","","","","","","","","","","","","","","",""
"","instructions","2","163594","0.0-1.0","9dq","[""l""]","","","","","[{""page_index"":0,""viewing_time"":123892},{""page_index"":1,""viewing_time"":15248},{""page_index"":2,""viewing_time"":21776}]","160917","","","","","","","","","","","","","",""
"","psychophysics","3","167095","0.0-2.0-0.0","9dq","[""l""]","","","","","","2793","key","m","m","16.671923809523772","912","513","2","0","1","1","1","true","",""
"","psychophysics","4","168107","0.0-2.0-1.0","9dq","[""l""]","","","","","","null","key","null","null","16.673149999999925","912","513","2","0","1","1","1","","",""
"","psychophysics","5","169119","0.0-2.0-2.0-0.0","9dq","[""l""]","","","","","","null","key","null","null","16.67193333333368","912","513","2","0","1","1","1","","",""
"","psychophysics","6","174910","0.0-2.0-0.1","9dq","[""l""]","","","","","","5088","key","m","m","16.67201156069365","912","513","1","1","0","0","0","false","",""
"","psychophysics","7","175921","0.0-2.0-1.1","9dq","[""l""]","","","","","","null","key","null","null","16.67311666666695","912","513","1","1","0","0","0","","",""
"","psychophysics","8","176931","0.0-2.0-3.1-0.1","9dq","[""l""]","","","","","","null","key","null","null","16.672220338982928","912","513","1","1","0","0","0","","",""
"","psychophysics","9","183874","0.0-2.0-0.2","9dq","[""l""]","","","","","","6236","key","z","z","16.671918269230794","912","513","1","0","0","0","1","true","",""
"","psychophysics","10","184883","0.0-2.0-1.2","9dq","[""l""]","","","","","","null","key","null","null","16.672966101694698","912","513","1","0","0","0","1","","",""
"","psychophysics","11","185895","0.0-2.0-2.2-0.2","9dq","[""l""]","","","","","","null","key","null","null","16.673249999999825","912","513","1","0","0","0","1","","",""
"","psychophysics","12","192226","0.0-2.0-0.3","9dq","[""l""]","","","","","","5628","key","m","m","16.671844327176746","912","513","2","0","1","1","1","true","",""
"","psychophysics","13","193235","0.0-2.0-1.3","9dq","[""l""]","","","","","","null","key","null","null","16.671949152542194","912","513","2","0","1","1","1","","",""
"","psychophysics","14","194245","0.0-2.0-2.3-0.3","9dq","[""l""]","","","","","","null","key","null","null","16.672199999999915","912","513","2","0","1","1","1","","",""
"","psychophysics","15","200607","0.0-2.0-0.4","9dq","[""l""]","","","","","","5657","key","m","m","16.671831578947373","912","513","1","0","0","1","1","false","",""
"","psychophysics","16","201615","0.0-2.0-1.4","9dq","[""l""]","","","","","","null","key","null","null","16.672716666666382","912","513","1","0","0","1","1","","",""
"","psychophysics","17","202625","0.0-2.0-3.4-0.4","9dq","[""l""]","","","","","","null","key","null","null","16.6728813559324","912","513","1","0","0","1","1","","",""
"","psychophysics","18","205943","0.0-2.0-0.5","9dq","[""l""]","","","","","","2614","key","z","z","16.67193434343437","912","513","2","1","1","1","1","false","",""
"","psychophysics","19","206952","0.0-2.0-1.5","9dq","[""l""]","","","","","","null","key","null","null","16.672633333333458","912","513","2","1","1","1","1","","",""
"","psychophysics","20","207964","0.0-2.0-3.5-0.5","9dq","[""l""]","","","","","","null","key","null","null","16.67273333333336","912","513","2","1","1","1","1","","",""
"","psychophysics","21","211999","0.0-2.0-0.6","9dq","[""l""]","","","","","","3331","key","m","m","16.67179253112034","912","513","1","0","1","1","1","false","",""
"","psychophysics","22","213007","0.0-2.0-1.6","9dq","[""l""]","","","","","","null","key","null","null","16.672694915254457","912","513","1","0","1","1","1","","",""
"","psychophysics","23","214017","0.0-2.0-3.6-0.6","9dq","[""l""]","","","","","","null","key","null","null","16.673166666666898","912","513","1","0","1","1","1","","",""
"","psychophysics","24","217679","0.0-2.0-0.7","9dq","[""l""]","","","","","","2958","key","m","m","16.671811926605447","912","513","2","0","0","1","1","true","",""
"","psychophysics","25","218687","0.0-2.0-1.7","9dq","[""l""]","","","","","","null","key","null","null","16.672633333333458","912","513","2","0","0","1","1","","",""
"","psychophysics","26","219697","0.0-2.0-2.7-0.7","9dq","[""l""]","","","","","","null","key","null","null","16.67205084745784","912","513","2","0","0","1","1","","",""
"","psychophysics","27","222142","0.0-2.0-0.8","9dq","[""l""]","","","","","","1741","key","z","z","16.671890410959037","912","513","1","0","1","0","0","true","",""
"","psychophysics","28","223152","0.0-2.0-1.8","9dq","[""l""]","","","","","","null","key","null","null","16.673000000000076","912","513","1","0","1","0","0","","",""
"","psychophysics","29","224161","0.0-2.0-2.8-0.8","9dq","[""l""]","","","","","","null","key","null","null","16.670796610169326","912","513","1","0","1","0","0","","",""
"","psychophysics","30","226383","0.0-2.0-0.9","9dq","[""l""]","","","","","","1518","key","m","m","16.67231060606057","912","513","1","0","0","1","0","false","",""
"","psychophysics","31","227391","0.0-2.0-1.9","9dq","[""l""]","","","","","","null","key","null","null","16.673149999999925","912","513","1","0","0","1","0","","",""
"","psychophysics","32","228400","0.0-2.0-3.9-0.9","9dq","[""l""]","","","","","","null","key","null","null","16.67279661016961","912","513","1","0","0","1","0","","",""
"","psychophysics","33","231927","0.0-2.0-0.10","9dq","[""l""]","","","","","","2823","key","z","z","16.671824644549787","912","513","2","1","1","0","1","false","",""
"","psychophysics","34","232934","0.0-2.0-1.10","9dq","[""l""]","","","","","","null","key","null","null","16.673525423729018","912","513","2","1","1","0","1","","",""
"","psychophysics","35","233944","0.0-2.0-3.10-0.10","9dq","[""l""]","","","","","","null","key","null","null","16.672799999999793","912","513","2","1","1","0","1","","",""
"","psychophysics","36","236158","0.0-2.0-0.11","9dq","[""l""]","","","","","","1511","key","z","z","16.672212121212038","912","513","1","1","0","1","1","true","",""
"","psychophysics","37","237165","0.0-2.0-1.11","9dq","[""l""]","","","","","","null","key","null","null","16.671423728813583","912","513","1","1","0","1","1","","",""
"","psychophysics","38","238174","0.0-2.0-2.11-0.11","9dq","[""l""]","","","","","","null","key","null","null","16.672799999999793","912","513","1","1","0","1","1","","",""
"","psychophysics","39","241446","0.0-2.0-0.12","9dq","[""l""]","","","","","","2567","key","m","m","16.671912820512752","912","513","1","1","1","1","1","false","",""
"","psychophysics","40","242454","0.0-2.0-1.12","9dq","[""l""]","","","","","","null","key","null","null","16.667135593220415","912","513","1","1","1","1","1","","",""
"","psychophysics","41","243464","0.0-2.0-3.12-0.12","9dq","[""l""]","","","","","","null","key","null","null","16.671933333333193","912","513","1","1","1","1","1","","",""
"","psychophysics","42","251854","0.0-2.0-0.13","9dq","[""l""]","","","","","","7687","key","z","z","16.671960159362538","912","513","1","0","1","0","1","true","",""
"","psychophysics","43","252862","0.0-2.0-1.13","9dq","[""l""]","","","","","","null","key","null","null","16.672966666666618","912","513","1","0","1","0","1","","",""
"","psychophysics","44","253871","0.0-2.0-2.13-0.13","9dq","[""l""]","","","","","","null","key","null","null","16.671864406779406","912","513","1","0","1","0","1","","",""
"","psychophysics","45","257222","0.0-2.0-0.14","9dq","[""l""]","","","","","","2644","key","m","m","16.672110000000103","912","513","1","1","1","0","1","false","",""
"","psychophysics","46","258231","0.0-2.0-1.14","9dq","[""l""]","","","","","","null","key","null","null","16.67265000000043","912","513","1","1","1","0","1","","",""
"","psychophysics","47","259240","0.0-2.0-3.14-0.14","9dq","[""l""]","","","","","","null","key","null","null","16.67149152542352","912","513","1","1","1","0","1","","",""
"","psychophysics","48","261958","0.0-2.0-0.15","9dq","[""l""]","","","","","","2011","key","m","m","16.672148148148008","912","513","2","0","0","1","1","true","",""
"","psychophysics","49","262966","0.0-2.0-1.15","9dq","[""l""]","","","","","","null","key","null","null","16.67269999999941","912","513","2","0","0","1","1","","",""
"","psychophysics","50","263976","0.0-2.0-2.15-0.15","9dq","[""l""]","","","","","","null","key","null","null","16.671949152541703","912","513","2","0","0","1","1","","",""
"","psychophysics","51","267086","0.0-2.0-0.16","9dq","[""l""]","","","","","","2404","key","z","z","16.67212903225808","912","513","1","1","1","1","1","true","",""
"","psychophysics","52","268093","0.0-2.0-1.16","9dq","[""l""]","","","","","","null","key","null","null","16.672593220339305","912","513","1","1","1","1","1","","",""
"","psychophysics","53","269103","0.0-2.0-2.16-0.16","9dq","[""l""]","","","","","","null","key","null","null","16.67243333333366","912","513","1","1","1","1","1","","",""
"","psychophysics","54","274358","0.0-2.0-0.17","9dq","[""l""]","","","","","","4552","key","z","z","16.671990445859887","912","513","1","0","1","1","1","true","",""
"","psychophysics","55","275368","0.0-2.0-1.17","9dq","[""l""]","","","","","","null","key","null","null","16.671350000000288","912","513","1","0","1","1","1","","",""
"","psychophysics","56","276377","0.0-2.0-2.17-0.17","9dq","[""l""]","","","","","","null","key","null","null","16.67123728813564","912","513","1","0","1","1","1","","",""
"","psychophysics","57","278614","0.0-2.0-0.18","9dq","[""l""]","","","","","","1532","key","z","z","16.672285714285636","912","513","1","1","1","1","1","true","",""
"","psychophysics","58","279623","0.0-2.0-1.18","9dq","[""l""]","","","","","","null","key","null","null","16.672100000000015","912","513","1","1","1","1","1","","",""
"","psychophysics","59","280632","0.0-2.0-2.18-0.18","9dq","[""l""]","","","","","","null","key","null","null","16.672271186440504","912","513","1","1","1","1","1","","",""
"","psychophysics","60","282774","0.0-2.0-0.19","9dq","[""l""]","","","","","","1437","key","m","m","16.672218749999956","912","513","2","1","0","1","1","true","",""
"","psychophysics","61","283782","0.0-2.0-1.19","9dq","[""l""]","","","","","","null","key","null","null","16.672474576270808","912","513","2","1","0","1","1","","",""
"","psychophysics","62","284797","0.0-2.0-2.19-0.19","9dq","[""l""]","","","","","","null","key","null","null","16.672450000000147","912","513","2","1","0","1","1","","",""
"","psychophysics","63","286950","0.0-2.0-0.20","9dq","[""l""]","","","","","","1445","key","z","z","16.672015624999858","912","513","1","0","1","1","1","true","",""
"","psychophysics","64","287958","0.0-2.0-1.20","9dq","[""l""]","","","","","","null","key","null","null","16.672666666666434","912","513","1","0","1","1","1","","",""
"","psychophysics","65","288968","0.0-2.0-2.20-0.20","9dq","[""l""]","","","","","","null","key","null","null","16.67199999999977","912","513","1","0","1","1","1","","",""
"","psychophysics","66","291207","0.0-2.0-0.21","9dq","[""l""]","","","","","","1534","key","z","z","16.6722014925374","912","513","1","1","0","1","1","true","",""
"","psychophysics","67","292214","0.0-2.0-1.21","9dq","[""l""]","","","","","","null","key","null","null","16.671915254236982","912","513","1","1","0","1","1","","",""
"","psychophysics","68","293224","0.0-2.0-2.21-0.21","9dq","[""l""]","","","","","","null","key","null","null","16.67298333333262","912","513","1","1","0","1","1","","",""
"","psychophysics","69","295294","0.0-2.0-0.22","9dq","[""l""]","","","","","","1366","key","m","m","16.671707317073132","912","513","2","1","1","1","1","true","",""
"","psychophysics","70","296301","0.0-2.0-1.22","9dq","[""l""]","","","","","","null","key","null","null","16.67330508474537","912","513","2","1","1","1","1","","",""
"","psychophysics","71","297310","0.0-2.0-2.22-0.22","9dq","[""l""]","","","","","","null","key","null","null","16.672000000000118","912","513","2","1","1","1","1","","",""
"","psychophysics","72","299376","0.0-2.0-0.23","9dq","[""l""]","","","","","","1362","key","z","z","16.6724146341463","912","513","1","0","0","1","1","true","",""
"","psychophysics","73","300384","0.0-2.0-1.23","9dq","[""l""]","","","","","","null","key","null","null","16.671762711864748","912","513","1","0","0","1","1","","",""
"","psychophysics","74","301393","0.0-2.0-2.23-0.23","9dq","[""l""]","","","","","","null","key","null","null","16.67271666666687","912","513","1","0","0","1","1","","",""
"","psychophysics","75","303998","0.0-2.0-0.24","9dq","[""l""]","","","","","","1901","key","m","m","16.671845161290314","912","513","2","1","0","1","1","true","",""
"","psychophysics","76","305005","0.0-2.0-1.24","9dq","[""l""]","","","","","","null","key","null","null","16.672220338983422","912","513","2","1","0","1","1","","",""
"","psychophysics","77","306014","0.0-2.0-2.24-0.24","9dq","[""l""]","","","","","","null","key","null","null","16.67278333333379","912","513","2","1","0","1","1","","",""
"","psychophysics","78","308599","0.0-2.0-0.25","9dq","[""l""]","","","","","","1880","key","m","m","16.67205194805185","912","513","2","0","1","1","1","true","",""
"","psychophysics","79","309606","0.0-2.0-1.25","9dq","[""l""]","","","","","","null","key","null","null","16.671864406779896","912","513","2","0","1","1","1","","",""
"","psychophysics","80","310616","0.0-2.0-2.25-0.25","9dq","[""l""]","","","","","","null","key","null","null","16.67296666666613","912","513","2","0","1","1","1","","",""
"","psychophysics","81","313086","0.0-2.0-0.26","9dq","[""l""]","","","","","","1765","key","z","z","16.671965986394426","912","513","2","1","1","1","0","false","",""
"","psychophysics","82","314097","0.0-2.0-1.26","9dq","[""l""]","","","","","","null","key","null","null","16.676900000000025","912","513","2","1","1","1","0","","",""
"","psychophysics","83","315106","0.0-2.0-3.26-0.26","9dq","[""l""]","","","","","","null","key","null","null","16.671762711864748","912","513","2","1","1","1","0","","",""
"","psychophysics","84","318454","0.0-2.0-0.27","9dq","[""l""]","","","","","","2644","key","m","m","16.671955000000015","912","513","1","1","0","1","0","false","",""
"","psychophysics","85","319461","0.0-2.0-1.27","9dq","[""l""]","","","","","","null","key","null","null","16.67284745762768","912","513","1","1","0","1","0","","",""
"","psychophysics","86","320470","0.0-2.0-3.27-0.27","9dq","[""l""]","","","","","","null","key","null","null","16.672200000000885","912","513","1","1","0","1","0","","",""
"","psychophysics","87","323606","0.0-2.0-0.28","9dq","[""l""]","","","","","","2432","key","m","m","16.67188770053466","912","513","1","1","1","0","0","false","",""
"","psychophysics","88","324617","0.0-2.0-1.28","9dq","[""l""]","","","","","","null","key","null","null","16.673033333333056","912","513","1","1","1","0","0","","",""
"","psychophysics","89","325626","0.0-2.0-3.28-0.28","9dq","[""l""]","","","","","","null","key","null","null","16.67213559322063","912","513","1","1","1","0","0","","",""
"","psychophysics","90","329870","0.0-2.0-0.29","9dq","[""l""]","","","","","","3540","key","z","z","16.671838582677154","912","513","1","0","1","1","1","true","",""
"","psychophysics","91","330877","0.0-2.0-1.29","9dq","[""l""]","","","","","","null","key","null","null","16.671644067796247","912","513","1","0","1","1","1","","",""
"","psychophysics","92","331888","0.0-2.0-2.29-0.29","9dq","[""l""]","","","","","","null","key","null","null","16.672933333333155","912","513","1","0","1","1","1","","",""
"","psychophysics","93","337710","0.0-2.0-0.30","9dq","[""l""]","","","","","","5118","key","m","m","16.67182471264363","912","513","2","0","0","1","0","true","",""
"","psychophysics","94","338721","0.0-2.0-1.30","9dq","[""l""]","","","","","","null","key","null","null","16.67304999999954","912","513","2","0","0","1","0","","",""
"","psychophysics","95","339729","0.0-2.0-2.30-0.30","9dq","[""l""]","","","","","","null","key","null","null","16.67205084745784","912","513","2","0","0","1","0","","",""
"","psychophysics","96","344734","0.0-2.0-0.31","9dq","[""l""]","","","","","","4300","key","z","z","16.67199331103691","912","513","1","0","1","1","1","true","",""
"","psychophysics","97","345742","0.0-2.0-1.31","9dq","[""l""]","","","","","","null","key","null","null","16.671899999999248","912","513","1","0","1","1","1","","",""
"","psychophysics","98","346751","0.0-2.0-2.31-0.31","9dq","[""l""]","","","","","","null","key","null","null","16.67266101694875","912","513","1","0","1","1","1","","",""
"","psychophysics","99","349094","0.0-2.0-0.32","9dq","[""l""]","","","","","","1637","key","m","m","16.672192857142573","912","513","2","1","0","1","1","true","",""
"","psychophysics","100","350102","0.0-2.0-1.32","9dq","[""l""]","","","","","","null","key","null","null","16.671847457627536","912","513","2","1","0","1","1","","",""
"","psychophysics","101","351111","0.0-2.0-2.32-0.32","9dq","[""l""]","","","","","","null","key","null","null","16.67288333333369","912","513","2","1","0","1","1","","",""
"","psychophysics","102","353294","0.0-2.0-0.33","9dq","[""l""]","","","","","","1479","key","z","z","16.672276923076986","912","513","1","0","1","1","1","true","",""
"","psychophysics","103","354301","0.0-2.0-1.33","9dq","[""l""]","","","","","","null","key","null","null","16.671915254237966","912","513","1","0","1","1","1","","",""
"","psychophysics","104","355312","0.0-2.0-2.33-0.33","9dq","[""l""]","","","","","","null","key","null","null","16.672199999999915","912","513","1","0","1","1","1","","",""
"","psychophysics","105","359095","0.0-2.0-0.34","9dq","[""l""]","","","","","","3078","key","z","z","16.67176106194677","912","513","2","0","1","1","0","false","",""
"","psychophysics","106","360103","0.0-2.0-1.34","9dq","[""l""]","","","","","","null","key","null","null","16.67213559322063","912","513","2","0","1","1","0","","",""
"","psychophysics","107","361113","0.0-2.0-3.34-0.34","9dq","[""l""]","","","","","","null","key","null","null","16.67278333333379","912","513","2","0","1","1","0","","",""
"","psychophysics","108","363863","0.0-2.0-0.35","9dq","[""l""]","","","","","","2045","key","z","z","16.672195121951162","912","513","2","0","0","0","0","false","",""
"","psychophysics","109","364870","0.0-2.0-1.35","9dq","[""l""]","","","","","","null","key","null","null","16.672152542372004","912","513","2","0","0","0","0","","",""
"","psychophysics","110","365881","0.0-2.0-3.35-0.35","9dq","[""l""]","","","","","","null","key","null","null","16.672266666665866","912","513","2","0","0","0","0","","",""
"","psychophysics","111","368614","0.0-2.0-0.36","9dq","[""l""]","","","","","","2029","key","m","m","16.67192638036795","912","513","2","0","1","1","1","true","",""
"","psychophysics","112","369622","0.0-2.0-1.36","9dq","[""l""]","","","","","","null","key","null","null","16.671644067796247","912","513","2","0","1","1","1","","",""
"","psychophysics","113","370632","0.0-2.0-2.36-0.36","9dq","[""l""]","","","","","","null","key","null","null","16.672849999999745","912","513","2","0","1","1","1","","",""
"","psychophysics","114","373366","0.0-2.0-0.37","9dq","[""l""]","","","","","","2031","key","m","m","16.671907975460172","912","513","1","1","0","0","0","false","",""
"","psychophysics","115","374373","0.0-2.0-1.37","9dq","[""l""]","","","","","","null","key","null","null","16.67103389830435","912","513","1","1","0","0","0","","",""
"","psychophysics","116","375383","0.0-2.0-3.37-0.37","9dq","[""l""]","","","","","","null","key","null","null","16.673133333332952","912","513","1","1","0","0","0","","",""
"","psychophysics","117","377846","0.0-2.0-0.38","9dq","[""l""]","","","","","","1760","key","z","z","16.672041095890126","912","513","2","0","0","1","1","false","",""
"","psychophysics","118","378854","0.0-2.0-1.38","9dq","[""l""]","","","","","","null","key","null","null","16.6729666666671","912","513","2","0","0","1","1","","",""
"","psychophysics","119","379863","0.0-2.0-3.38-0.38","9dq","[""l""]","","","","","","null","key","null","null","16.672932203389482","912","513","2","0","0","1","1","","",""
"","psychophysics","120","382535","0.0-2.0-0.39","9dq","[""l""]","","","","","","1967","key","z","z","16.671868750000066","912","513","1","1","0","1","1","true","",""
"","psychophysics","121","383543","0.0-2.0-1.39","9dq","[""l""]","","","","","","null","key","null","null","16.67177966101711","912","513","1","1","0","1","1","","",""
"","psychophysics","122","384554","0.0-2.0-2.39-0.39","9dq","[""l""]","","","","","","null","key","null","null","16.67278333333282","912","513","1","1","0","1","1","","",""
"","psychophysics","123","386766","0.0-2.0-0.40","9dq","[""l""]","","","","","","1508","key","m","m","16.672053435114425","912","513","2","0","1","1","1","true","",""
"","psychophysics","124","387773","0.0-2.0-1.40","9dq","[""l""]","","","","","","null","key","null","null","16.67223333333386","912","513","2","0","1","1","1","","",""
"","psychophysics","125","388783","0.0-2.0-2.40-0.40","9dq","[""l""]","","","","","","null","key","null","null","16.67291525423712","912","513","2","0","1","1","1","","",""
"","psychophysics","126","393950","0.0-2.0-0.41","9dq","[""l""]","","","","","","4463","key","z","z","16.671886731391623","912","513","1","0","1","1","1","true","",""
"","psychophysics","127","394958","0.0-2.0-1.41","9dq","[""l""]","","","","","","null","key","null","null","16.672916666666666","912","513","1","0","1","1","1","","",""
"","psychophysics","128","395967","0.0-2.0-2.41-0.41","9dq","[""l""]","","","","","","null","key","null","null","16.67213559322063","912","513","1","0","1","1","1","","",""
"","psychophysics","129","401045","0.0-2.0-0.42","9dq","[""l""]","","","","","","4373","key","m","m","16.671983552631566","912","513","1","1","0","0","1","false","",""
"","psychophysics","130","402053","0.0-2.0-1.42","9dq","[""l""]","","","","","","null","key","null","null","16.67323728813494","912","513","1","1","0","0","1","","",""
"","psychophysics","131","403063","0.0-2.0-3.42-0.42","9dq","[""l""]","","","","","","null","key","null","null","16.671883333332758","912","513","1","1","0","0","1","","",""
"","psychophysics","132","406078","0.0-2.0-0.43","9dq","[""l""]","","","","","","2311","key","m","m","16.672072222222212","912","513","2","0","0","1","1","true","",""
"","psychophysics","133","407085","0.0-2.0-1.43","9dq","[""l""]","","","","","","null","key","null","null","16.671864406778912","912","513","2","0","0","1","1","","",""
"","psychophysics","134","408094","0.0-2.0-2.43-0.43","9dq","[""l""]","","","","","","null","key","null","null","16.67281666666677","912","513","2","0","0","1","1","","",""
"","psychophysics","135","411677","0.0-2.0-0.44","9dq","[""l""]","","","","","","2879","key","z","z","16.671869158878636","912","513","1","1","0","1","1","true","",""
"","psychophysics","136","412685","0.0-2.0-1.44","9dq","[""l""]","","","","","","null","key","null","null","16.67183050847419","912","513","1","1","0","1","1","","",""
"","psychophysics","137","413695","0.0-2.0-2.44-0.44","9dq","[""l""]","","","","","","null","key","null","null","16.67288333333369","912","513","1","1","0","1","1","","",""
"","psychophysics","138","418934","0.0-2.0-0.45","9dq","[""l""]","","","","","","4536","key","m","m","16.671824281150215","912","513","2","1","1","1","1","true","",""
"","psychophysics","139","419942","0.0-2.0-1.45","9dq","[""l""]","","","","","","null","key","null","null","16.672186440677713","912","513","2","1","1","1","1","","",""
"","psychophysics","140","420952","0.0-2.0-2.45-0.45","9dq","[""l""]","","","","","","null","key","null","null","16.673000000000076","912","513","2","1","1","1","1","","",""
"","psychophysics","141","423758","0.0-2.0-0.46","9dq","[""l""]","","","","","","2101","key","z","z","16.672101796407414","912","513","1","0","0","1","1","true","",""
"","psychophysics","142","424766","0.0-2.0-1.46","9dq","[""l""]","","","","","","null","key","null","null","16.672450000000147","912","513","1","0","0","1","1","","",""
"","psychophysics","143","425775","0.0-2.0-2.46-0.46","9dq","[""l""]","","","","","","null","key","null","null","16.67220338983106","912","513","1","0","0","1","1","","",""
"","psychophysics","144","430142","0.0-2.0-0.47","9dq","[""l""]","","","","","","3660","key","z","z","16.67205747126439","912","513","2","1","0","0","0","false","",""
"","psychophysics","145","431151","0.0-2.0-1.47","9dq","[""l""]","","","","","","null","key","null","null","16.67243333333366","912","513","2","1","0","0","0","","",""
"","psychophysics","146","432160","0.0-2.0-3.47-0.47","9dq","[""l""]","","","","","","null","key","null","null","16.67179661016947","912","513","2","1","0","0","0","","",""
"","psychophysics","147","436302","0.0-2.0-0.48","9dq","[""l""]","","","","","","3438","key","z","z","16.672072580645157","912","513","1","0","1","0","1","true","",""
"","psychophysics","148","437309","0.0-2.0-1.48","9dq","[""l""]","","","","","","null","key","null","null","16.671932203389343","912","513","1","0","1","0","1","","",""
"","psychophysics","149","438318","0.0-2.0-2.48-0.48","9dq","[""l""]","","","","","","null","key","null","null","16.672599999999512","912","513","1","0","1","0","1","","",""
"","psychophysics","150","442078","0.0-2.0-0.49","9dq","[""l""]","","","","","","3055","key","m","m","16.671616071428748","912","513","1","0","1","1","1","false","",""
"","psychophysics","151","443086","0.0-2.0-1.49","9dq","[""l""]","","","","","","null","key","null","null","16.67288333333369","912","513","1","0","1","1","1","","",""
"","psychophysics","152","444095","0.0-2.0-3.49-0.49","9dq","[""l""]","","","","","","null","key","null","null","16.67198305084741","912","513","1","0","1","1","1","","",""
"","psychophysics","153","447630","0.0-2.0-0.50","9dq","[""l""]","","","","","","2831","key","z","z","16.672109004739347","912","513","1","0","0","0","0","true","",""
"","psychophysics","154","448638","0.0-2.0-1.50","9dq","[""l""]","","","","","","null","key","null","null","16.672100000000015","912","513","1","0","0","0","0","","",""
"","psychophysics","155","449648","0.0-2.0-2.50-0.50","9dq","[""l""]","","","","","","null","key","null","null","16.67220338983106","912","513","1","0","0","0","0","","",""
"","psychophysics","156","453494","0.0-2.0-0.51","9dq","[""l""]","","","","","","3138","key","m","m","16.671830434782642","912","513","2","0","0","1","1","true","",""
"","psychophysics","157","454501","0.0-2.0-1.51","9dq","[""l""]","","","","","","null","key","null","null","16.672220338983422","912","513","2","0","0","1","1","","",""
"","psychophysics","158","455510","0.0-2.0-2.51-0.51","9dq","[""l""]","","","","","","null","key","null","null","16.67278333333379","912","513","2","0","0","1","1","","",""
"","psychophysics","159","457758","0.0-2.0-0.52","9dq","[""l""]","","","","","","1545","key","m","m","16.67182835820913","912","513","2","0","1","1","1","true","",""
"","psychophysics","160","458766","0.0-2.0-1.52","9dq","[""l""]","","","","","","null","key","null","null","16.671644067796247","912","513","2","0","1","1","1","","",""
"","psychophysics","161","459777","0.0-2.0-2.52-0.52","9dq","[""l""]","","","","","","null","key","null","null","16.672566666666533","912","513","2","0","1","1","1","","",""
"","psychophysics","162","461727","0.0-2.0-0.53","9dq","[""l""]","","","","","","1245","key","z","z","16.67198275862079","912","513","1","1","1","1","1","true","",""
"","psychophysics","163","462735","0.0-2.0-1.53","9dq","[""l""]","","","","","","null","key","null","null","16.671610169491526","912","513","1","1","1","1","1","","",""
"","psychophysics","164","463745","0.0-2.0-2.53-0.53","9dq","[""l""]","","","","","","null","key","null","null","16.67294999999964","912","513","1","1","1","1","1","","",""
"","psychophysics","165","466214","0.0-2.0-0.54","9dq","[""l""]","","","","","","1764","key","m","m","16.671870748299018","912","513","2","0","1","1","1","true","",""
"","psychophysics","166","467222","0.0-2.0-1.54","9dq","[""l""]","","","","","","null","key","null","null","16.672322033898574","912","513","2","0","1","1","1","","",""
"","psychophysics","167","468231","0.0-2.0-2.54-0.54","9dq","[""l""]","","","","","","null","key","null","null","16.672933333333155","912","513","2","0","1","1","1","","",""
"","psychophysics","168","471661","0.0-2.0-0.55","9dq","[""l""]","","","","","","2726","key","m","m","16.671043902439088","912","513","1","1","1","0","0","false","",""
"","psychophysics","169","472663","0.0-2.0-1.55","9dq","[""l""]","","","","","","null","key","null","null","16.67179661016947","912","513","1","1","1","0","0","","",""
"","psychophysics","170","473667","0.0-2.0-3.55-0.55","9dq","[""l""]","","","","","","null","key","null","null","16.672186440677713","912","513","1","1","1","0","0","","",""
"","psychophysics","171","477381","0.0-2.0-0.56","9dq","[""l""]","","","","","","3011","key","z","z","16.671824324324408","912","513","1","0","0","1","0","true","",""
"","psychophysics","172","478384","0.0-2.0-1.56","9dq","[""l""]","","","","","","null","key","null","null","16.671593220339165","912","513","1","0","0","1","0","","",""
"","psychophysics","173","479387","0.0-2.0-2.56-0.56","9dq","[""l""]","","","","","","null","key","null","null","16.671661016948608","912","513","1","0","0","1","0","","",""
"","psychophysics","174","482652","0.0-2.0-0.57","9dq","[""l""]","","","","","","2564","key","m","m","16.671728205128023","912","513","2","1","0","1","0","true","",""
"","psychophysics","175","483654","0.0-2.0-1.57","9dq","[""l""]","","","","","","null","key","null","null","16.671491525424013","912","513","2","1","0","1","0","","",""
"","psychophysics","176","484658","0.0-2.0-2.57-0.57","9dq","[""l""]","","","","","","null","key","null","null","16.671711864406678","912","513","2","1","0","1","0","","",""
"","psychophysics","177","489812","0.0-2.0-0.58","9dq","[""l""]","","","","","","4452","key","m","m","16.6718441558442","912","513","2","0","0","1","1","true","",""
"","psychophysics","178","490815","0.0-2.0-1.58","9dq","[""l""]","","","","","","null","key","null","null","16.67215000000045","912","513","2","0","0","1","1","","",""
"","psychophysics","179","491819","0.0-2.0-2.58-0.58","9dq","[""l""]","","","","","","null","key","null","null","16.671694915254317","912","513","2","0","0","1","1","","",""
"","psychophysics","180","497020","0.0-2.0-0.59","9dq","[""l""]","","","","","","4499","key","m","m","16.67178456591636","912","513","1","1","0","0","1","false","",""
"","psychophysics","181","498023","0.0-2.0-1.59","9dq","[""l""]","","","","","","null","key","null","null","16.671711864406678","912","513","1","1","0","0","1","","",""
"","psychophysics","182","499026","0.0-2.0-3.59-0.59","9dq","[""l""]","","","","","","null","key","null","null","16.671525423728735","912","513","1","1","0","0","1","","",""
"","psychophysics","183","503708","0.0-2.0-0.60","9dq","[""l""]","","","","","","3979","key","m","m","16.671792857142904","912","513","2","0","1","1","1","true","",""
"","psychophysics","184","504711","0.0-2.0-1.60","9dq","[""l""]","","","","","","null","key","null","null","16.671694915254317","912","513","2","0","1","1","1","","",""
"","psychophysics","185","505715","0.0-2.0-2.60-0.60","9dq","[""l""]","","","","","","null","key","null","null","16.671915254236982","912","513","2","0","1","1","1","","",""
"","psychophysics","186","508668","0.0-2.0-0.61","9dq","[""l""]","","","","","","2252","key","z","z","16.671761363636257","912","513","1","1","1","1","1","true","",""
"","psychophysics","187","509671","0.0-2.0-1.61","9dq","[""l""]","","","","","","null","key","null","null","16.67158333333403","912","513","1","1","1","1","1","","",""
"","psychophysics","188","510673","0.0-2.0-2.61-0.61","9dq","[""l""]","","","","","","null","key","null","null","16.672186440677713","912","513","1","1","1","1","1","","",""
"","psychophysics","189","515316","0.0-2.0-0.62","9dq","[""l""]","","","","","","3940","key","m","m","16.671747292418853","912","513","2","1","1","1","1","true","",""
"","psychophysics","190","516319","0.0-2.0-1.62","9dq","[""l""]","","","","","","null","key","null","null","16.67172881355904","912","513","2","1","1","1","1","","",""
"","psychophysics","191","517322","0.0-2.0-2.62-0.62","9dq","[""l""]","","","","","","null","key","null","null","16.671745762712387","912","513","2","1","1","1","1","","",""
"","psychophysics","192","520588","0.0-2.0-0.63","9dq","[""l""]","","","","","","2565","key","z","z","16.671912820512752","912","513","1","0","0","1","0","true","",""
"","psychophysics","193","521594","0.0-2.0-1.63","9dq","[""l""]","","","","","","null","key","null","null","16.674066666666963","912","513","1","0","0","1","0","","",""
"","psychophysics","194","522602","0.0-2.0-2.63-0.63","9dq","[""l""]","","","","","","null","key","null","null","16.67262711864403","912","513","1","0","0","1","0","","",""
"","psychophysics","195","525279","0.0-2.0-0.64","9dq","[""l""]","","","","","","1972","key","z","z","16.672049999999945","912","513","1","1","1","1","1","true","",""
"","psychophysics","196","526286","0.0-2.0-1.64","9dq","[""l""]","","","","","","null","key","null","null","16.67088135593113","912","513","1","1","1","1","1","","",""
"","psychophysics","197","527296","0.0-2.0-2.64-0.64","9dq","[""l""]","","","","","","null","key","null","null","16.672733333332385","912","513","1","1","1","1","1","","",""
"","psychophysics","198","530248","0.0-2.0-0.65","9dq","[""l""]","","","","","","2248","key","m","m","16.6717727272725","912","513","1","1","1","0","1","false","",""
"","psychophysics","199","531255","0.0-2.0-1.65","9dq","[""l""]","","","","","","null","key","null","null","16.6720677966102","912","513","1","1","1","0","1","","",""
"","psychophysics","200","532265","0.0-2.0-3.65-0.65","9dq","[""l""]","","","","","","null","key","null","null","16.67271666666687","912","513","1","1","1","0","1","","",""
"","psychophysics","201","535149","0.0-2.0-0.66","9dq","[""l""]","","","","","","2180","key","m","m","16.67169186046488","912","513","2","1","1","0","1","true","",""
"","psychophysics","202","536156","0.0-2.0-1.66","9dq","[""l""]","","","","","","null","key","null","null","16.67330508474537","912","513","2","1","1","0","1","","",""
"","psychophysics","203","537166","0.0-2.0-2.66-0.66","9dq","[""l""]","","","","","","null","key","null","null","16.672866666668174","912","513","2","1","1","0","1","","",""
"","psychophysics","204","540230","0.0-2.0-0.67","9dq","[""l""]","","","","","","2359","key","m","m","16.671758241758294","912","513","2","0","1","1","1","true","",""
"","psychophysics","205","541237","0.0-2.0-1.67","9dq","[""l""]","","","","","","null","key","null","null","16.67271666666687","912","513","2","0","1","1","1","","",""
"","psychophysics","206","542246","0.0-2.0-2.67-0.67","9dq","[""l""]","","","","","","null","key","null","null","16.673050847456995","912","513","2","0","1","1","1","","",""
"","psychophysics","207","545021","0.0-2.0-0.68","9dq","[""l""]","","","","","","2070","key","z","z","16.671861445783016","912","513","1","0","0","1","0","true","",""
"","psychophysics","208","546028","0.0-2.0-1.68","9dq","[""l""]","","","","","","null","key","null","null","16.671186440677573","912","513","1","0","0","1","0","","",""
"","psychophysics","209","547038","0.0-2.0-2.68-0.68","9dq","[""l""]","","","","","","null","key","null","null","16.67271666666687","912","513","1","0","0","1","0","","",""
"","psychophysics","210","551197","0.0-2.0-0.69","9dq","[""l""]","","","","","","3455","key","m","m","16.671838709677104","912","513","1","0","1","1","1","false","",""
"","psychophysics","211","552205","0.0-2.0-1.69","9dq","[""l""]","","","","","","null","key","null","null","16.672916666666666","912","513","1","0","1","1","1","","",""
"","psychophysics","212","553216","0.0-2.0-3.69-0.69","9dq","[""l""]","","","","","","null","key","null","null","16.672050847456855","912","513","1","0","1","1","1","","",""
"","psychophysics","213","558765","0.0-2.0-0.70","9dq","[""l""]","","","","","","4844","key","z","z","16.671990963855144","912","513","1","0","0","0","1","true","",""
"","psychophysics","214","559773","0.0-2.0-1.70","9dq","[""l""]","","","","","","null","key","null","null","16.6729666666671","912","513","1","0","0","0","1","","",""
"","psychophysics","215","560791","0.0-2.0-2.70-0.70","9dq","[""l""]","","","","","","null","key","null","null","16.672566666667503","912","513","1","0","0","0","1","","",""
"","psychophysics","216","567837","0.0-2.0-0.71","9dq","[""l""]","","","","","","6341","key","m","m","16.671831353919277","912","513","2","1","1","1","1","true","",""
"","psychophysics","217","568844","0.0-2.0-1.71","9dq","[""l""]","","","","","","null","key","null","null","16.67270000000135","912","513","2","1","1","1","1","","",""
"","psychophysics","218","569853","0.0-2.0-2.71-0.71","9dq","[""l""]","","","","","","null","key","null","null","16.67181355932183","912","513","2","1","1","1","1","","",""
"","psychophysics","219","574345","0.0-2.0-0.72","9dq","[""l""]","","","","","","3786","key","m","m","16.67195910780663","912","513","2","0","0","1","0","true","",""
"","psychophysics","220","575352","0.0-2.0-1.72","9dq","[""l""]","","","","","","null","key","null","null","16.669322033898148","912","513","2","0","0","1","0","","",""
"","psychophysics","221","576356","0.0-2.0-2.72-0.72","9dq","[""l""]","","","","","","null","key","null","null","16.67216949152634","912","513","2","0","0","1","0","","",""
"","psychophysics","222","581497","0.0-2.0-0.73","9dq","[""l""]","","","","","","4438","key","z","z","16.67205519480525","912","513","1","0","0","0","1","true","",""
"","psychophysics","223","582504","0.0-2.0-1.73","9dq","[""l""]","","","","","","null","key","null","null","16.671932203391314","912","513","1","0","0","0","1","","",""
"","psychophysics","224","583513","0.0-2.0-2.73-0.73","9dq","[""l""]","","","","","","null","key","null","null","16.67216666666597","912","513","1","0","0","0","1","","",""
"","psychophysics","225","588109","0.0-2.0-0.74","9dq","[""l""]","","","","","","3892","key","m","m","16.67174087591252","912","513","2","0","0","1","1","true","",""
"","psychophysics","226","589117","0.0-2.0-1.74","9dq","[""l""]","","","","","","null","key","null","null","16.672766666667304","912","513","2","0","0","1","1","","",""
"","psychophysics","227","590126","0.0-2.0-2.74-0.74","9dq","[""l""]","","","","","","null","key","null","null","16.672220338982434","912","513","2","0","0","1","1","","",""
"","psychophysics","228","594757","0.0-2.0-0.75","9dq","[""l""]","","","","","","3925","key","z","z","16.671992779783366","912","513","1","1","1","1","1","true","",""
"","psychophysics","229","595766","0.0-2.0-1.75","9dq","[""l""]","","","","","","null","key","null","null","16.67278333333476","912","513","1","1","1","1","1","","",""
"","psychophysics","230","596788","0.0-2.0-2.75-0.75","9dq","[""l""]","","","","","","null","key","null","null","16.67294999999964","912","513","1","1","1","1","1","","",""
"","psychophysics","231","599181","0.0-2.0-0.76","9dq","[""l""]","","","","","","1689","key","m","m","16.672323943661777","912","513","2","0","0","1","1","true","",""
"","psychophysics","232","600190","0.0-2.0-1.76","9dq","[""l""]","","","","","","null","key","null","null","16.67271666666687","912","513","2","0","0","1","1","","",""
"","psychophysics","233","601202","0.0-2.0-2.76-0.76","9dq","[""l""]","","","","","","null","key","null","null","16.672766666667304","912","513","2","0","0","1","1","","",""
"","psychophysics","234","603829","0.0-2.0-0.77","9dq","[""l""]","","","","","","1924","key","z","z","16.67208974358987","912","513","1","0","1","1","1","true","",""
"","psychophysics","235","604838","0.0-2.0-1.77","9dq","[""l""]","","","","","","null","key","null","null","16.67294999999964","912","513","1","0","1","1","1","","",""
"","psychophysics","236","605847","0.0-2.0-2.77-0.77","9dq","[""l""]","","","","","","null","key","null","null","16.67198305084741","912","513","1","0","1","1","1","","",""
"","psychophysics","237","608573","0.0-2.0-0.78","9dq","[""l""]","","","","","","2019","key","m","m","16.67221472392636","912","513","2","0","1","1","1","true","",""
"","psychophysics","238","609581","0.0-2.0-1.78","9dq","[""l""]","","","","","","null","key","null","null","16.67210169491492","912","513","2","0","1","1","1","","",""
"","psychophysics","239","610591","0.0-2.0-2.78-0.78","9dq","[""l""]","","","","","","null","key","null","null","16.672550000000047","912","513","2","0","1","1","1","","",""
"","psychophysics","240","613286","0.0-2.0-0.79","9dq","[""l""]","","","","","","1987","key","m","m","16.671962500000518","912","513","2","0","1","1","1","true","",""
"","psychophysics","241","614294","0.0-2.0-1.79","9dq","[""l""]","","","","","","null","key","null","null","16.671833333332323","912","513","2","0","1","1","1","","",""
"","psychophysics","242","615302","0.0-2.0-2.79-0.79","9dq","[""l""]","","","","","","null","key","null","null","16.672322033898574","912","513","2","0","1","1","1","","",""
"","psychophysics","243","624565","0.0-2.0-0.80","9dq","[""l""]","","","","","","8558","key","z","z","16.671846846846847","912","513","1","1","0","1","0","true","",""
"","psychophysics","244","625573","0.0-2.0-1.80","9dq","[""l""]","","","","","","null","key","null","null","16.672711864407805","912","513","1","1","0","1","0","","",""
"","psychophysics","245","626594","0.0-2.0-2.80-0.80","9dq","[""l""]","","","","","","null","key","null","null","16.670426229507374","912","513","1","1","0","1","0","","",""
"","psychophysics","246","628781","0.0-2.0-0.81","9dq","[""l""]","","","","","","1484","key","m","m","16.672253846154153","912","513","2","0","1","0","1","true","",""
"","psychophysics","247","629789","0.0-2.0-1.81","9dq","[""l""]","","","","","","null","key","null","null","16.672796610168625","912","513","2","0","1","0","1","","",""
"","psychophysics","248","630799","0.0-2.0-2.81-0.81","9dq","[""l""]","","","","","","null","key","null","null","16.67206666666704","912","513","2","0","1","0","1","","",""
"","psychophysics","249","633285","0.0-2.0-0.82","9dq","[""l""]","","","","","","1781","key","z","z","16.672155405405746","912","513","1","0","1","1","1","true","",""
"","psychophysics","250","634295","0.0-2.0-1.82","9dq","[""l""]","","","","","","null","key","null","null","16.67281666666774","912","513","1","0","1","1","1","","",""
"","psychophysics","251","635305","0.0-2.0-2.82-0.82","9dq","[""l""]","","","","","","null","key","null","null","16.671694915254317","912","513","1","0","1","1","1","","",""
"","psychophysics","252","638933","0.0-2.0-0.83","9dq","[""l""]","","","","","","2925","key","m","m","16.67202764976993","912","513","1","0","0","0","0","false","",""
"","psychophysics","253","639941","0.0-2.0-1.83","9dq","[""l""]","","","","","","null","key","null","null","16.67201694915213","912","513","1","0","0","0","0","","",""
"","psychophysics","254","640950","0.0-2.0-3.83-0.83","9dq","[""l""]","","","","","","null","key","null","null","16.67306666666603","912","513","1","0","0","0","0","","",""
"","psychophysics","255","644200","0.0-2.0-0.84","9dq","[""l""]","","","","","","2546","key","m","m","16.671943298968866","912","513","2","1","0","1","1","true","",""
"","psychophysics","256","645207","0.0-2.0-1.84","9dq","[""l""]","","","","","","null","key","null","null","16.671169491524225","912","513","2","1","0","1","1","","",""
"","psychophysics","257","646217","0.0-2.0-2.84-0.84","9dq","[""l""]","","","","","","null","key","null","null","16.672916666666666","912","513","2","1","0","1","1","","",""
"","psychophysics","258","650185","0.0-2.0-0.85","9dq","[""l""]","","","","","","3263","key","z","z","16.671628691983027","912","513","1","1","0","1","0","true","",""
"","psychophysics","259","651192","0.0-2.0-1.85","9dq","[""l""]","","","","","","null","key","null","null","16.671796610170453","912","513","1","1","0","1","0","","",""
"","psychophysics","260","652202","0.0-2.0-2.85-0.85","9dq","[""l""]","","","","","","null","key","null","null","16.67294999999964","912","513","1","1","0","1","0","","",""
"","psychophysics","261","656093","0.0-2.0-0.86","9dq","[""l""]","","","","","","3187","key","m","m","16.671935344827443","912","513","2","0","1","1","1","true","",""
"","psychophysics","262","657103","0.0-2.0-1.86","9dq","[""l""]","","","","","","null","key","null","null","16.672450000001117","912","513","2","0","1","1","1","","",""
"","psychophysics","263","658113","0.0-2.0-2.86-0.86","9dq","[""l""]","","","","","","null","key","null","null","16.67222033898441","912","513","2","0","1","1","1","","",""
"","psychophysics","264","661197","0.0-2.0-0.87","9dq","[""l""]","","","","","","2376","key","m","m","16.67192391304327","912","513","2","1","1","1","1","true","",""
"","psychophysics","265","662205","0.0-2.0-1.87","9dq","[""l""]","","","","","","null","key","null","null","16.673666666665426","912","513","2","1","1","1","1","","",""
"","psychophysics","266","663214","0.0-2.0-2.87-0.87","9dq","[""l""]","","","","","","null","key","null","null","16.67167796610097","912","513","2","1","1","1","1","","",""
"","psychophysics","267","665813","0.0-2.0-0.88","9dq","[""l""]","","","","","","1896","key","m","m","16.672277419354707","912","513","2","0","1","0","1","true","",""
"","psychophysics","268","666822","0.0-2.0-1.88","9dq","[""l""]","","","","","","null","key","null","null","16.673166666664958","912","513","2","0","1","0","1","","",""
"","psychophysics","269","667831","0.0-2.0-2.88-0.88","9dq","[""l""]","","","","","","null","key","null","null","16.672033898303507","912","513","2","0","1","0","1","","",""
"","psychophysics","270","669757","0.0-2.0-0.89","9dq","[""l""]","","","","","","1222","key","m","m","16.672295652174025","912","513","1","0","1","0","0","false","",""
"","psychophysics","271","670765","0.0-2.0-1.89","9dq","[""l""]","","","","","","null","key","null","null","16.671542372882083","912","513","1","0","1","0","0","","",""
"","psychophysics","272","671775","0.0-2.0-3.89-0.89","9dq","[""l""]","","","","","","null","key","null","null","16.67271666666493","912","513","1","0","1","0","0","","",""
"","psychophysics","273","673837","0.0-2.0-0.90","9dq","[""l""]","","","","","","1359","key","z","z","16.671893442623112","912","513","1","0","0","1","1","true","",""
"","psychophysics","274","674845","0.0-2.0-1.90","9dq","[""l""]","","","","","","null","key","null","null","16.673083333333487","912","513","1","0","0","1","1","","",""
"","psychophysics","275","675855","0.0-2.0-2.90-0.90","9dq","[""l""]","","","","","","null","key","null","null","16.672254237287156","912","513","1","0","0","1","1","","",""
"","psychophysics","276","680111","0.0-2.0-0.91","9dq","[""l""]","","","","","","3552","key","m","m","16.67198039215679","912","513","1","1","1","0","1","false","",""
"","psychophysics","277","681119","0.0-2.0-1.91","9dq","[""l""]","","","","","","null","key","null","null","16.67171186440569","912","513","1","1","1","0","1","","",""
"","psychophysics","278","682129","0.0-2.0-3.91-0.91","9dq","[""l""]","","","","","","null","key","null","null","16.672833333333255","912","513","1","1","1","0","1","","",""
"","psychophysics","279","686628","0.0-2.0-0.92","9dq","[""l""]","","","","","","3796","key","z","z","16.671524163568826","912","513","1","1","0","1","0","true","",""
"","psychophysics","280","687633","0.0-2.0-1.92","9dq","[""l""]","","","","","","null","key","null","null","16.671220338982295","912","513","1","1","0","1","0","","",""
"","psychophysics","281","688642","0.0-2.0-2.92-0.92","9dq","[""l""]","","","","","","null","key","null","null","16.672237288135783","912","513","1","1","0","1","0","","",""
"","psychophysics","282","691397","0.0-2.0-0.93","9dq","[""l""]","","","","","","2050","key","z","z","16.671969696969697","912","513","1","1","0","1","0","true","",""
"","psychophysics","283","692405","0.0-2.0-1.93","9dq","[""l""]","","","","","","null","key","null","null","16.6716271186429","912","513","1","1","0","1","0","","",""
"","psychophysics","284","693414","0.0-2.0-2.93-0.93","9dq","[""l""]","","","","","","null","key","null","null","16.67278333333282","912","513","1","1","0","1","0","","",""
"","psychophysics","285","696261","0.0-2.0-0.94","9dq","[""l""]","","","","","","2143","key","m","m","16.671834319526848","912","513","2","1","1","0","1","true","",""
"","psychophysics","286","697269","0.0-2.0-1.94","9dq","[""l""]","","","","","","null","key","null","null","16.673133333333922","912","513","2","1","1","0","1","","",""
"","psychophysics","287","698278","0.0-2.0-2.94-0.94","9dq","[""l""]","","","","","","null","key","null","null","16.67291525423811","912","513","2","1","1","0","1","","",""
"","psychophysics","288","701629","0.0-2.0-0.95","9dq","[""l""]","","","","","","2646","key","z","z","16.671865000000107","912","513","1","1","1","1","0","true","",""
"","psychophysics","289","702637","0.0-2.0-1.95","9dq","[""l""]","","","","","","null","key","null","null","16.673199999999877","912","513","1","1","1","1","0","","",""
"","psychophysics","290","703646","0.0-2.0-2.95-0.95","9dq","[""l""]","","","","","","null","key","null","null","16.672796610170597","912","513","1","1","1","1","0","","",""
"","psychophysics","291","705869","0.0-2.0-0.96","9dq","[""l""]","","","","","","1518","key","z","z","16.672060150375653","912","513","1","1","1","1","1","true","",""
"","psychophysics","292","706879","0.0-2.0-1.96","9dq","[""l""]","","","","","","null","key","null","null","16.671169491526197","912","513","1","1","1","1","1","","",""
"","psychophysics","293","707889","0.0-2.0-2.96-0.96","9dq","[""l""]","","","","","","null","key","null","null","16.672766666667304","912","513","1","1","1","1","1","","",""
"","psychophysics","294","710870","0.0-2.0-0.97","9dq","[""l""]","","","","","","2277","key","z","z","16.672174157303356","912","513","2","1","0","1","0","false","",""
"","psychophysics","295","711878","0.0-2.0-1.97","9dq","[""l""]","","","","","","null","key","null","null","16.671711864407662","912","513","2","1","0","1","0","","",""
"","psychophysics","296","712888","0.0-2.0-3.97-0.97","9dq","[""l""]","","","","","","null","key","null","null","16.67278333333476","912","513","2","1","0","1","0","","",""
"","psychophysics","297","717557","0.0-2.0-0.98","9dq","[""l""]","","","","","","3965","key","m","m","16.671756272401165","912","513","1","1","1","0","1","false","",""
"","psychophysics","298","718565","0.0-2.0-1.98","9dq","[""l""]","","","","","","null","key","null","null","16.672932203389482","912","513","1","1","1","0","1","","",""
"","psychophysics","299","719575","0.0-2.0-3.98-0.98","9dq","[""l""]","","","","","","null","key","null","null","16.67278333333476","912","513","1","1","1","0","1","","",""
"","psychophysics","300","722224","0.0-2.0-0.99","9dq","[""l""]","","","","","","1944","key","m","m","16.67199999999986","912","513","1","0","1","1","0","false","",""
"","psychophysics","301","723231","0.0-2.0-1.99","9dq","[""l""]","","","","","","null","key","null","null","16.671796610170453","912","513","1","0","1","1","0","","",""
"","psychophysics","302","724241","0.0-2.0-3.99-0.99","9dq","[""l""]","","","","","","null","key","null","null","16.673216666667333","912","513","1","0","1","1","0","","",""
"","html-keyboard-response","303","730165","0.0-2.0-4.99-0.99","9dq","[""l""]","","","","","","5919","","","g","","","","","","","","","","<p>You have finished block 1 of 4.<p>You correctly predicted 72% of the races.<p>On the next screen, you will be given a 30 second break. Press the <b>g</b> key to start your break.",""
"","html-keyboard-response","304","731168","0.0-2.0-4.99-1.99-0.99","9dq","[""l""]","","","","","","null","","","null","","","","","","","","","","<p>The experiment will resume in 30 seconds. ",""
"","html-keyboard-response","305","732171","0.0-2.0-4.99-1.99-1.99","9dq","[""l""]","","","","","","null","","","null","","","","","","","","","","<p>The experiment will resume in 29 seconds. ",""
"","html-keyboard-response","306","733173","0.0-2.0-4.99-1.99-2.99","9dq","[""l""]","","","","","","null","","","null","","","","","","","","","","<p>The experiment will resume in 28 seconds. ",""
"","html-keyboard-response","307","734177","0.0-2.0-4.99-1.99-3.99","9dq","[""l""]","","","","","","null","","","null","","","","","","","","","","<p>The experiment will resume in 27 seconds. ",""
"","html-keyboard-response","308","735180","0.0-2.0-4.99-1.99-4.99","9dq","[""l""]","","","","","","null","","","null","","","","","","","","","","<p>The experiment will resume in 26 seconds. ",""
"","html-keyboard-response","309","736182","0.0-2.0-4.99-1.99-5.99","9dq","[""l""]","","","","","","null","","","null","","","","","","","","","","<p>The experiment will resume in 25 seconds. ",""
"","html-keyboard-response","310","737183","0.0-2.0-4.99-1.99-6.99","9dq","[""l""]","","","","","","null","","","null","","","","","","","","","","<p>The experiment will resume in 24 seconds. ",""
"","html-keyboard-response","311","738186","0.0-2.0-4.99-1.99-7.99","9dq","[""l""]","","","","","","null","","","null","","","","","","","","","","<p>The experiment will resume in 23 seconds. ",""
"","html-keyboard-response","312","739188","0.0-2.0-4.99-1.99-8.99","9dq","[""l""]","","","","","","null","","","null","","","","","","","","","","<p>The experiment will resume in 22 seconds. ",""
"","html-keyboard-response","313","740190","0.0-2.0-4.99-1.99-9.99","9dq","[""l""]","","","","","","null","","","null","","","","","","","","","","<p>The experiment will resume in 21 seconds. ",""
"","html-keyboard-response","314","741192","0.0-2.0-4.99-1.99-10.99","9dq","[""l""]","","","","","","null","","","null","","","","","","","","","","<p>The experiment will resume in 20 seconds. ",""
"","html-keyboard-response","315","742194","0.0-2.0-4.99-1.99-11.99","9dq","[""l""]","","","","","","null","","","null","","","","","","","","","","<p>The experiment will resume in 19 seconds. ",""
"","html-keyboard-response","316","743195","0.0-2.0-4.99-1.99-12.99","9dq","[""l""]","","","","","","null","","","null","","","","","","","","","","<p>The experiment will resume in 18 seconds. ",""
"","html-keyboard-response","317","744197","0.0-2.0-4.99-1.99-13.99","9dq","[""l""]","","","","","","null","","","null","","","","","","","","","","<p>The experiment will resume in 17 seconds. ",""
"","html-keyboard-response","318","745199","0.0-2.0-4.99-1.99-14.99","9dq","[""l""]","","","","","","null","","","null","","","","","","","","","","<p>The experiment will resume in 16 seconds. ",""
"","html-keyboard-response","319","746201","0.0-2.0-4.99-1.99-15.99","9dq","[""l""]","","","","","","null","","","null","","","","","","","","","","<p>The experiment will resume in 15 seconds. ",""
"","html-keyboard-response","320","747202","0.0-2.0-4.99-1.99-16.99","9dq","[""l""]","","","","","","null","","","null","","","","","","","","","","<p>The experiment will resume in 14 seconds. ",""
"","html-keyboard-response","321","748203","0.0-2.0-4.99-1.99-17.99","9dq","[""l""]","","","","","","null","","","null","","","","","","","","","","<p>The experiment will resume in 13 seconds. ",""
"","html-keyboard-response","322","749206","0.0-2.0-4.99-1.99-18.99","9dq","[""l""]","","","","","","null","","","null","","","","","","","","","","<p>The experiment will resume in 12 seconds. ",""
"","html-keyboard-response","323","750207","0.0-2.0-4.99-1.99-19.99","9dq","[""l""]","","","","","","null","","","null","","","","","","","","","","<p>The experiment will resume in 11 seconds. ",""
"","html-keyboard-response","324","751209","0.0-2.0-4.99-1.99-20.99","9dq","[""l""]","","","","","","null","","","null","","","","","","","","","","<p>The experiment will resume in 10 seconds. ",""
"","html-keyboard-response","325","752211","0.0-2.0-4.99-1.99-21.99","9dq","[""l""]","","","","","","null","","","null","","","","","","","","","","<p>The experiment will resume in 9 seconds. ",""
"","html-keyboard-response","326","753212","0.0-2.0-4.99-1.99-22.99","9dq","[""l""]","","","","","","null","","","null","","","","","","","","","","<p>The experiment will resume in 8 seconds. ",""
"","html-keyboard-response","327","754214","0.0-2.0-4.99-1.99-23.99","9dq","[""l""]","","","","","","null","","","null","","","","","","","","","","<p>The experiment will resume in 7 seconds. ",""
"","html-keyboard-response","328","755216","0.0-2.0-4.99-1.99-24.99","9dq","[""l""]","","","","","","null","","","null","","","","","","","","","","<p>The experiment will resume in 6 seconds. ",""
"","html-keyboard-response","329","756218","0.0-2.0-4.99-1.99-25.99","9dq","[""l""]","","","","","","null","","","null","","","","","","","","","","<p>The experiment will resume in 5 seconds. ",""
"","html-keyboard-response","330","757219","0.0-2.0-4.99-1.99-26.99","9dq","[""l""]","","","","","","null","","","null","","","","","","","","","","<p>The experiment will resume in 4 seconds. ",""
"","html-keyboard-response","331","758221","0.0-2.0-4.99-1.99-27.99","9dq","[""l""]","","","","","","null","","","null","","","","","","","","","","<p>The experiment will resume in 3 seconds. ",""
"","html-keyboard-response","332","759223","0.0-2.0-4.99-1.99-28.99","9dq","[""l""]","","","","","","null","","","null","","","","","","","","","","<p>The experiment will resume in 2 seconds. ",""
"","html-keyboard-response","333","760225","0.0-2.0-4.99-1.99-29.99","9dq","[""l""]","","","","","","null","","","null","","","","","","","","","","<p>The experiment will resume in 1 seconds. ",""
"","psychophysics","334","765487","0.0-2.0-0.100","9dq","[""l""]","","","","","","4558","key","z","z","16.72590793650782","912","513","2","0","1","1","0","false","",""
"","psychophysics","335","766495","0.0-2.0-1.100","9dq","[""l""]","","","","","","null","key","null","null","16.67281355932197","912","513","2","0","1","1","0","","",""
"","psychophysics","336","767505","0.0-2.0-3.100-0.100","9dq","[""l""]","","","","","","null","key","null","null","16.67280000000028","912","513","2","0","1","1","0","","",""
"","psychophysics","337","770340","0.0-2.0-0.101","9dq","[""l""]","","","","","","2132","key","m","m","16.671852071005603","912","513","1","1","0","0","1","false","",""
"","psychophysics","338","771348","0.0-2.0-1.101","9dq","[""l""]","","","","","","null","key","null","null","16.671559322033456","912","513","1","1","0","0","1","","",""
"","psychophysics","339","772359","0.0-2.0-3.101-0.101","9dq","[""l""]","","","","","","null","key","null","null","16.67280000000028","912","513","1","1","0","0","1","","",""
"","psychophysics","340","780613","0.0-2.0-0.102","9dq","[""l""]","","","","","","7550","key","m","m","16.671951417004085","912","513","2","0","0","1","0","true","",""
"","psychophysics","341","781621","0.0-2.0-1.102","9dq","[""l""]","","","","","","null","key","null","null","16.672525423728878","912","513","2","0","0","1","0","","",""
"","psychophysics","342","782642","0.0-2.0-2.102-0.102","9dq","[""l""]","","","","","","null","key","null","null","16.671524590163752","912","513","2","0","0","1","0","","",""
"","psychophysics","343","786764","0.0-2.0-0.103","9dq","[""l""]","","","","","","3419","key","m","m","16.671878048780513","912","513","2","1","0","1","1","true","",""
"","psychophysics","344","787771","0.0-2.0-1.103","9dq","[""l""]","","","","","","null","key","null","null","16.672745762710555","912","513","2","1","0","1","1","","",""
"","psychophysics","345","788781","0.0-2.0-2.103-0.103","9dq","[""l""]","","","","","","null","key","null","null","16.67208333333256","912","513","2","1","0","1","1","","",""
"","psychophysics","346","793900","0.0-2.0-0.104","9dq","[""l""]","","","","","","4416","key","m","m","16.67198366013103","912","513","2","1","0","1","0","true","",""
"","psychophysics","347","794908","0.0-2.0-1.104","9dq","[""l""]","","","","","","null","key","null","null","16.6725084745775","912","513","2","1","0","1","0","","",""
"","psychophysics","348","795917","0.0-2.0-2.104-0.104","9dq","[""l""]","","","","","","null","key","null","null","16.672466666666637","912","513","2","1","0","1","0","","",""
"","psychophysics","349","801431","0.0-2.0-0.105","9dq","[""l""]","","","","","","4810","key","z","z","16.67199393939368","912","513","2","1","1","0","1","false","",""
"","psychophysics","350","802438","0.0-2.0-1.105","9dq","[""l""]","","","","","","null","key","null","null","16.672440677966087","912","513","2","1","1","0","1","","",""
"","psychophysics","351","803457","0.0-2.0-3.105-0.105","9dq","[""l""]","","","","","","null","key","null","null","16.67206666666704","912","513","2","1","1","0","1","","",""
"","psychophysics","352","806420","0.0-2.0-0.106","9dq","[""l""]","","","","","","2255","key","m","m","16.671881355932587","912","513","1","0","0","0","0","false","",""
"","psychophysics","353","807427","0.0-2.0-1.106","9dq","[""l""]","","","","","","null","key","null","null","16.672694915254457","912","513","1","0","0","0","0","","",""
"","psychophysics","354","808437","0.0-2.0-3.106-0.106","9dq","[""l""]","","","","","","null","key","null","null","16.672216666666404","912","513","1","0","0","0","0","","",""
"","psychophysics","355","813852","0.0-2.0-0.107","9dq","[""l""]","","","","","","4711","key","m","m","16.671990740740668","912","513","2","0","1","1","1","true","",""
"","psychophysics","356","814861","0.0-2.0-1.107","9dq","[""l""]","","","","","","null","key","null","null","16.67284745762669","912","513","2","0","1","1","1","","",""
"","psychophysics","357","815870","0.0-2.0-2.107-0.107","9dq","[""l""]","","","","","","null","key","null","null","16.67279999999834","912","513","2","0","1","1","1","","",""
"","psychophysics","358","818196","0.0-2.0-0.108","9dq","[""l""]","","","","","","1622","key","m","m","16.671673913043417","912","513","2","1","1","1","1","true","",""
"","psychophysics","359","819205","0.0-2.0-1.108","9dq","[""l""]","","","","","","null","key","null","null","16.67198333333363","912","513","2","1","1","1","1","","",""
"","psychophysics","360","820214","0.0-2.0-2.108-0.108","9dq","[""l""]","","","","","","null","key","null","null","16.671152542372848","912","513","2","1","1","1","1","","",""
"","psychophysics","361","822115","0.0-2.0-0.109","9dq","[""l""]","","","","","","1195","key","m","m","16.671999999999883","912","513","1","0","0","0","0","false","",""
"","psychophysics","362","823120","0.0-2.0-1.109","9dq","[""l""]","","","","","","null","key","null","null","16.6729666666671","912","513","1","0","0","0","0","","",""
"","psychophysics","363","824130","0.0-2.0-3.109-0.109","9dq","[""l""]","","","","","","null","key","null","null","16.672796610170597","912","513","1","0","0","0","0","","",""
"","psychophysics","364","827980","0.0-2.0-0.110","9dq","[""l""]","","","","","","3146","key","z","z","16.671721739130113","912","513","2","1","0","0","1","false","",""
"","psychophysics","365","828989","0.0-2.0-1.110","9dq","[""l""]","","","","","","null","key","null","null","16.67280000000028","912","513","2","1","0","0","1","","",""
"","psychophysics","366","829999","0.0-2.0-3.110-0.110","9dq","[""l""]","","","","","","null","key","null","null","16.671101694916754","912","513","2","1","0","0","1","","",""
"","psychophysics","367","835812","0.0-2.0-0.111","9dq","[""l""]","","","","","","5110","key","z","z","16.67183620689655","912","513","1","1","0","1","1","true","",""
"","psychophysics","368","836819","0.0-2.0-1.111","9dq","[""l""]","","","","","","null","key","null","null","16.671661016949596","912","513","1","1","0","1","1","","",""
"","psychophysics","369","837830","0.0-2.0-2.111-0.111","9dq","[""l""]","","","","","","null","key","null","null","16.671900000000218","912","513","1","1","0","1","1","","",""
"","psychophysics","370","842484","0.0-2.0-0.112","9dq","[""l""]","","","","","","3950","key","z","z","16.67208992805761","912","513","2","1","1","0","1","false","",""
"","psychophysics","371","843493","0.0-2.0-1.112","9dq","[""l""]","","","","","","null","key","null","null","16.67286666666623","912","513","2","1","1","0","1","","",""
"","psychophysics","372","844503","0.0-2.0-3.112-0.112","9dq","[""l""]","","","","","","null","key","null","null","16.67201694915213","912","513","2","1","1","0","1","","",""
"","psychophysics","373","847229","0.0-2.0-0.113","9dq","[""l""]","","","","","","2022","key","m","m","16.67213496932563","912","513","2","1","1","1","1","true","",""
"","psychophysics","374","848236","0.0-2.0-1.113","9dq","[""l""]","","","","","","null","key","null","null","16.672406779661365","912","513","2","1","1","1","1","","",""
"","psychophysics","375","849247","0.0-2.0-2.113-0.113","9dq","[""l""]","","","","","","null","key","null","null","16.67231666666533","912","513","2","1","1","1","1","","",""
"","psychophysics","376","853772","0.0-2.0-0.114","9dq","[""l""]","","","","","","3821","key","z","z","16.67180370370366","912","513","2","0","0","1","1","false","",""
"","psychophysics","377","854781","0.0-2.0-1.114","9dq","[""l""]","","","","","","null","key","null","null","16.672050000001523","912","513","2","0","0","1","1","","",""
"","psychophysics","378","855790","0.0-2.0-3.114-0.114","9dq","[""l""]","","","","","","null","key","null","null","16.67147457627264","912","513","2","0","0","1","1","","",""
"","psychophysics","379","859166","0.0-2.0-0.115","9dq","[""l""]","","","","","","2673","key","z","z","16.672059405940853","912","513","1","1","0","1","1","true","",""
"","psychophysics","380","860173","0.0-2.0-1.115","9dq","[""l""]","","","","","","null","key","null","null","16.671525423728735","912","513","1","1","0","1","1","","",""
"","psychophysics","381","861182","0.0-2.0-2.115-0.115","9dq","[""l""]","","","","","","null","key","null","null","16.672583333333023","912","513","1","1","0","1","1","","",""
"","psychophysics","382","863540","0.0-2.0-0.116","9dq","[""l""]","","","","","","1653","key","m","m","16.671814285714312","912","513","1","1","0","0","0","false","",""
"","psychophysics","383","864550","0.0-2.0-1.116","9dq","[""l""]","","","","","","null","key","null","null","16.671933333333193","912","513","1","1","0","0","0","","",""
"","psychophysics","384","865559","0.0-2.0-3.116-0.116","9dq","[""l""]","","","","","","null","key","null","null","16.672186440677713","912","513","1","1","0","0","0","","",""
"","psychophysics","385","870404","0.0-2.0-0.117","9dq","[""l""]","","","","","","4141","key","z","z","16.67206206896527","912","513","1","1","1","0","1","true","",""
"","psychophysics","386","871411","0.0-2.0-1.117","9dq","[""l""]","","","","","","null","key","null","null","16.672525423726903","912","513","1","1","1","0","1","","",""
"","psychophysics","387","872421","0.0-2.0-2.117-0.117","9dq","[""l""]","","","","","","null","key","null","null","16.672366666667706","912","513","1","1","1","0","1","","",""
"","psychophysics","388","876692","0.0-2.0-0.118","9dq","[""l""]","","","","","","3567","key","m","m","16.67182745098036","912","513","2","1","1","1","1","true","",""
"","psychophysics","389","877700","0.0-2.0-1.118","9dq","[""l""]","","","","","","null","key","null","null","16.672915254236134","912","513","2","1","1","1","1","","",""
"","psychophysics","390","878709","0.0-2.0-2.118-0.118","9dq","[""l""]","","","","","","null","key","null","null","16.672200000000885","912","513","2","1","1","1","1","","",""
"","psychophysics","391","880856","0.0-2.0-0.119","9dq","[""l""]","","","","","","1443","key","z","z","16.671648437500153","912","513","1","1","1","1","1","true","",""
"","psychophysics","392","881863","0.0-2.0-1.119","9dq","[""l""]","","","","","","null","key","null","null","16.672135593219643","912","513","1","1","1","1","1","","",""
"","psychophysics","393","882872","0.0-2.0-2.119-0.119","9dq","[""l""]","","","","","","null","key","null","null","16.67208333333256","912","513","1","1","1","1","1","","",""
"","psychophysics","394","885708","0.0-2.0-0.120","9dq","[""l""]","","","","","","2133","key","m","m","16.671828402366803","912","513","2","1","1","0","1","true","",""
"","psychophysics","395","886715","0.0-2.0-1.120","9dq","[""l""]","","","","","","null","key","null","null","16.672796610168625","912","513","2","1","1","0","1","","",""
"","psychophysics","396","887724","0.0-2.0-2.120-0.120","9dq","[""l""]","","","","","","null","key","null","null","16.672600000000482","912","513","2","1","1","0","1","","",""
"","psychophysics","397","890252","0.0-2.0-0.121","9dq","[""l""]","","","","","","1824","key","m","m","16.671846666666678","912","513","1","0","0","1","1","false","",""
"","psychophysics","398","891261","0.0-2.0-1.121","9dq","[""l""]","","","","","","null","key","null","null","16.672733333332385","912","513","1","0","0","1","1","","",""
"","psychophysics","399","892270","0.0-2.0-3.121-0.121","9dq","[""l""]","","","","","","null","key","null","null","16.671457627119292","912","513","1","0","0","1","1","","",""
"","psychophysics","400","894828","0.0-2.0-0.122","9dq","[""l""]","","","","","","1852","key","m","m","16.671973856209377","912","513","2","0","1","1","1","true","",""
"","psychophysics","401","895835","0.0-2.0-1.122","9dq","[""l""]","","","","","","null","key","null","null","16.67264406779639","912","513","2","0","1","1","1","","",""
"","psychophysics","402","896845","0.0-2.0-2.122-0.122","9dq","[""l""]","","","","","","null","key","null","null","16.672350000000247","912","513","2","0","1","1","1","","",""
"","psychophysics","403","901804","0.0-2.0-0.123","9dq","[""l""]","","","","","","4255","key","z","z","16.671858108108093","912","513","1","0","0","1","0","true","",""
"","psychophysics","404","902812","0.0-2.0-1.123","9dq","[""l""]","","","","","","null","key","null","null","16.672666666666434","912","513","1","0","0","1","0","","",""
"","psychophysics","405","903821","0.0-2.0-2.123-0.123","9dq","[""l""]","","","","","","null","key","null","null","16.67211864406827","912","513","1","0","0","1","0","","",""
"","psychophysics","406","906956","0.0-2.0-0.124","9dq","[""l""]","","","","","","2431","key","z","z","16.67199465240673","912","513","1","1","0","1","0","true","",""
"","psychophysics","407","907965","0.0-2.0-1.124","9dq","[""l""]","","","","","","null","key","null","null","16.67286666666623","912","513","1","1","0","1","0","","",""
"","psychophysics","408","908974","0.0-2.0-2.124-0.124","9dq","[""l""]","","","","","","null","key","null","null","16.672999999998925","912","513","1","1","0","1","0","","",""
"","psychophysics","409","911875","0.0-2.0-0.125","9dq","[""l""]","","","","","","2195","key","m","m","16.671849710982553","912","513","2","1","1","0","1","true","",""
"","psychophysics","410","912883","0.0-2.0-1.125","9dq","[""l""]","","","","","","null","key","null","null","16.672683333333893","912","513","2","1","1","0","1","","",""
"","psychophysics","411","913892","0.0-2.0-2.125-0.125","9dq","[""l""]","","","","","","null","key","null","null","16.672440677966087","912","513","2","1","1","0","1","","",""
"","psychophysics","412","916187","0.0-2.0-0.126","9dq","[""l""]","","","","","","1588","key","m","m","16.67210948905129","912","513","2","0","1","1","1","true","",""
"","psychophysics","413","917195","0.0-2.0-1.126","9dq","[""l""]","","","","","","null","key","null","null","16.672966101694204","912","513","2","0","1","1","1","","",""
"","psychophysics","414","918204","0.0-2.0-2.126-0.126","9dq","[""l""]","","","","","","null","key","null","null","16.67215000000045","912","513","2","0","1","1","1","","",""
"","psychophysics","415","920540","0.0-2.0-0.127","9dq","[""l""]","","","","","","1632","key","m","m","16.67216546762577","912","513","2","0","1","1","1","true","",""
"","psychophysics","416","921551","0.0-2.0-1.127","9dq","[""l""]","","","","","","null","key","null","null","16.67233333333279","912","513","2","0","1","1","1","","",""
"","psychophysics","417","922559","0.0-2.0-2.127-0.127","9dq","[""l""]","","","","","","null","key","null","null","16.67098305084727","912","513","2","0","1","1","1","","",""
"","psychophysics","418","924853","0.0-2.0-0.128","9dq","[""l""]","","","","","","1589","key","m","m","16.672437956204032","912","513","2","0","1","1","1","true","",""
"","psychophysics","419","925860","0.0-2.0-1.128","9dq","[""l""]","","","","","","null","key","null","null","16.673525423729018","912","513","2","0","1","1","1","","",""
"","psychophysics","420","926871","0.0-2.0-2.128-0.128","9dq","[""l""]","","","","","","null","key","null","null","16.672183333333425","912","513","2","0","1","1","1","","",""
"","psychophysics","421","929471","0.0-2.0-0.129","9dq","[""l""]","","","","","","1897","key","z","z","16.672051612902884","912","513","1","0","1","0","1","true","",""
"","psychophysics","422","930478","0.0-2.0-1.129","9dq","[""l""]","","","","","","null","key","null","null","16.671915254235994","912","513","1","0","1","0","1","","",""
"","psychophysics","423","931487","0.0-2.0-2.129-0.129","9dq","[""l""]","","","","","","null","key","null","null","16.67315000000138","912","513","1","0","1","0","1","","",""
"","psychophysics","424","933755","0.0-2.0-0.130","9dq","[""l""]","","","","","","1564","key","m","m","16.67219259259291","912","513","2","0","1","1","1","true","",""
"","psychophysics","425","934763","0.0-2.0-1.130","9dq","[""l""]","","","","","","null","key","null","null","16.67167796610097","912","513","2","0","1","1","1","","",""
"","psychophysics","426","935773","0.0-2.0-2.130-0.130","9dq","[""l""]","","","","","","null","key","null","null","16.67306666666603","912","513","2","0","1","1","1","","",""
"","psychophysics","427","938195","0.0-2.0-0.131","9dq","[""l""]","","","","","","1719","key","m","m","16.67186111111126","912","513","1","0","0","1","1","false","",""
"","psychophysics","428","939206","0.0-2.0-1.131","9dq","[""l""]","","","","","","null","key","null","null","16.67224999999938","912","513","1","0","0","1","1","","",""
"","psychophysics","429","940215","0.0-2.0-3.131-0.131","9dq","[""l""]","","","","","","null","key","null","null","16.67198305084741","912","513","1","0","0","1","1","","",""
"","psychophysics","430","942315","0.0-2.0-0.132","9dq","[""l""]","","","","","","1397","key","z","z","16.671792000000366","912","513","1","0","1","1","1","true","",""
"","psychophysics","431","943324","0.0-2.0-1.132","9dq","[""l""]","","","","","","null","key","null","null","16.67208333333256","912","513","1","0","1","1","1","","",""
"","psychophysics","432","944333","0.0-2.0-2.132-0.132","9dq","[""l""]","","","","","","null","key","null","null","16.671881355933245","912","513","1","0","1","1","1","","",""
"","psychophysics","433","946811","0.0-2.0-0.133","9dq","[""l""]","","","","","","1774","key","z","z","16.671722972973225","912","513","1","1","0","1","1","true","",""
"","psychophysics","434","947819","0.0-2.0-1.133","9dq","[""l""]","","","","","","null","key","null","null","16.67164406779822","912","513","1","1","0","1","1","","",""
"","psychophysics","435","948829","0.0-2.0-2.133-0.133","9dq","[""l""]","","","","","","null","key","null","null","16.67251666666707","912","513","1","1","0","1","1","","",""
"","psychophysics","436","951347","0.0-2.0-0.134","9dq","[""l""]","","","","","","1814","key","m","m","16.67185333333366","912","513","2","0","0","1","1","true","",""
"","psychophysics","437","952355","0.0-2.0-1.134","9dq","[""l""]","","","","","","null","key","null","null","16.672915254236134","912","513","2","0","0","1","1","","",""
"","psychophysics","438","953366","0.0-2.0-2.134-0.134","9dq","[""l""]","","","","","","null","key","null","null","16.67269999999941","912","513","2","0","0","1","1","","",""
"","psychophysics","439","956155","0.0-2.0-0.135","9dq","[""l""]","","","","","","2086","key","z","z","16.67206024096406","912","513","2","0","0","1","1","false","",""
"","psychophysics","440","957163","0.0-2.0-1.135","9dq","[""l""]","","","","","","null","key","null","null","16.670733333334404","912","513","2","0","0","1","1","","",""
"","psychophysics","441","958168","0.0-2.0-3.135-0.135","9dq","[""l""]","","","","","","null","key","null","null","16.673915254236277","912","513","2","0","0","1","1","","",""
"","psychophysics","442","961147","0.0-2.0-0.136","9dq","[""l""]","","","","","","2275","key","m","m","16.67242134831456","912","513","2","1","0","1","0","true","",""
"","psychophysics","443","962155","0.0-2.0-1.136","9dq","[""l""]","","","","","","null","key","null","null","16.67216949152634","912","513","2","1","0","1","0","","",""
"","psychophysics","444","963165","0.0-2.0-2.136-0.136","9dq","[""l""]","","","","","","null","key","null","null","16.672033333334063","912","513","2","1","0","1","0","","",""
"","psychophysics","445","965355","0.0-2.0-0.137","9dq","[""l""]","","","","","","1487","key","z","z","16.67171538461519","912","513","1","0","0","1","1","true","",""
"","psychophysics","446","966365","0.0-2.0-1.137","9dq","[""l""]","","","","","","null","key","null","null","16.672633333333458","912","513","1","0","0","1","1","","",""
"","psychophysics","447","967375","0.0-2.0-2.137-0.137","9dq","[""l""]","","","","","","null","key","null","null","16.673491525424296","912","513","1","0","0","1","1","","",""
"","psychophysics","448","969091","0.0-2.0-0.138","9dq","[""l""]","","","","","","1009","key","m","m","16.672215686274427","912","513","2","1","1","1","1","true","",""
"","psychophysics","449","970100","0.0-2.0-1.138","9dq","[""l""]","","","","","","null","key","null","null","16.672850000000714","912","513","2","1","1","1","1","","",""
"","psychophysics","450","971109","0.0-2.0-2.138-0.138","9dq","[""l""]","","","","","","null","key","null","null","16.6718135593238","912","513","2","1","1","1","1","","",""
"","psychophysics","451","974612","0.0-2.0-0.139","9dq","[""l""]","","","","","","2799","key","z","z","16.672277511961973","912","513","1","0","0","1","0","true","",""
"","psychophysics","452","975620","0.0-2.0-1.139","9dq","[""l""]","","","","","","null","key","null","null","16.67215000000045","912","513","1","0","0","1","0","","",""
"","psychophysics","453","976629","0.0-2.0-2.139-0.139","9dq","[""l""]","","","","","","null","key","null","null","16.670813559321687","912","513","1","0","0","1","0","","",""
"","psychophysics","454","981654","0.0-2.0-0.140","9dq","[""l""]","","","","","","4318","key","z","z","16.671863787375123","912","513","2","1","1","1","0","false","",""
"","psychophysics","455","982662","0.0-2.0-1.140","9dq","[""l""]","","","","","","null","key","null","null","16.672745762712527","912","513","2","1","1","1","0","","",""
"","psychophysics","456","983671","0.0-2.0-3.140-0.140","9dq","[""l""]","","","","","","null","key","null","null","16.67213333333299","912","513","2","1","1","1","0","","",""
"","psychophysics","457","986116","0.0-2.0-0.141","9dq","[""l""]","","","","","","1742","key","z","z","16.67208965517227","912","513","1","0","1","1","1","true","",""
"","psychophysics","458","987123","0.0-2.0-1.141","9dq","[""l""]","","","","","","null","key","null","null","16.673083333333487","912","513","1","0","1","1","1","","",""
"","psychophysics","459","988132","0.0-2.0-2.141-0.141","9dq","[""l""]","","","","","","null","key","null","null","16.67211864406827","912","513","1","0","1","1","1","","",""
"","psychophysics","460","990659","0.0-2.0-0.142","9dq","[""l""]","","","","","","1821","key","z","z","16.672046357616228","912","513","1","0","1","1","1","true","",""
"","psychophysics","461","991666","0.0-2.0-1.142","9dq","[""l""]","","","","","","null","key","null","null","16.67201694915213","912","513","1","0","1","1","1","","",""
"","psychophysics","462","992675","0.0-2.0-2.142-0.142","9dq","[""l""]","","","","","","null","key","null","null","16.672550000000047","912","513","1","0","1","1","1","","",""
"","psychophysics","463","995579","0.0-2.0-0.143","9dq","[""l""]","","","","","","2202","key","m","m","16.672173410405087","912","513","2","0","0","1","0","true","",""
"","psychophysics","464","996587","0.0-2.0-1.143","9dq","[""l""]","","","","","","null","key","null","null","16.672830508475318","912","513","2","0","0","1","0","","",""
"","psychophysics","465","997596","0.0-2.0-2.143-0.143","9dq","[""l""]","","","","","","null","key","null","null","16.671799999999347","912","513","2","0","0","1","0","","",""
"","psychophysics","466","999876","0.0-2.0-0.144","9dq","[""l""]","","","","","","1576","key","z","z","16.67200735294147","912","513","2","0","0","0","0","false","",""
"","psychophysics","467","1000883","0.0-2.0-1.144","9dq","[""l""]","","","","","","null","key","null","null","16.671203389830918","912","513","2","0","0","0","0","","",""
"","psychophysics","468","1001894","0.0-2.0-3.144-0.144","9dq","[""l""]","","","","","","null","key","null","null","16.6724166666662","912","513","2","0","0","0","0","","",""
"","psychophysics","469","1005428","0.0-2.0-0.145","9dq","[""l""]","","","","","","2830","key","z","z","16.672037914692165","912","513","2","0","0","0","1","false","",""
"","psychophysics","470","1006435","0.0-2.0-1.145","9dq","[""l""]","","","","","","null","key","null","null","16.672271186440504","912","513","2","0","0","0","1","","",""
"","psychophysics","471","1007444","0.0-2.0-3.145-0.145","9dq","[""l""]","","","","","","null","key","null","null","16.6728166666658","912","513","2","0","0","0","1","","",""
"","psychophysics","472","1010732","0.0-2.0-0.146","9dq","[""l""]","","","","","","2583","key","z","z","16.670647959183302","912","513","1","0","1","1","1","true","",""
"","psychophysics","473","1011739","0.0-2.0-1.146","9dq","[""l""]","","","","","","null","key","null","null","16.672305084745226","912","513","1","0","1","1","1","","",""
"","psychophysics","474","1012748","0.0-2.0-2.146-0.146","9dq","[""l""]","","","","","","null","key","null","null","16.67176666666637","912","513","1","0","1","1","1","","",""
"","psychophysics","475","1014883","0.0-2.0-0.147","9dq","[""l""]","","","","","","1431","key","m","m","16.672228346456862","912","513","2","1","0","1","1","true","",""
"","psychophysics","476","1015890","0.0-2.0-1.147","9dq","[""l""]","","","","","","null","key","null","null","16.671203389828946","912","513","2","1","0","1","1","","",""
"","psychophysics","477","1016899","0.0-2.0-2.147-0.147","9dq","[""l""]","","","","","","null","key","null","null","16.672583333333023","912","513","2","1","0","1","1","","",""
"","psychophysics","478","1019283","0.0-2.0-0.148","9dq","[""l""]","","","","","","1679","key","z","z","16.672140845070547","912","513","1","1","1","1","1","true","",""
"","psychophysics","479","1020290","0.0-2.0-1.148","9dq","[""l""]","","","","","","null","key","null","null","16.671745762712387","912","513","1","1","1","1","1","","",""
"","psychophysics","480","1021300","0.0-2.0-2.148-0.148","9dq","[""l""]","","","","","","null","key","null","null","16.672849999998775","912","513","1","1","1","1","1","","",""
"","psychophysics","481","1023868","0.0-2.0-0.149","9dq","[""l""]","","","","","","1864","key","m","m","16.67175163398649","912","513","1","1","0","0","1","false","",""
"","psychophysics","482","1024875","0.0-2.0-1.149","9dq","[""l""]","","","","","","null","key","null","null","16.672220338982434","912","513","1","1","0","0","1","","",""
"","psychophysics","483","1025884","0.0-2.0-3.149-0.149","9dq","[""l""]","","","","","","null","key","null","null","16.672016666666604","912","513","1","1","0","0","1","","",""
"","psychophysics","484","1028676","0.0-2.0-0.150","9dq","[""l""]","","","","","","2088","key","m","m","16.67209638554269","912","513","2","0","1","1","1","true","",""
"","psychophysics","485","1029685","0.0-2.0-1.150","9dq","[""l""]","","","","","","null","key","null","null","16.67213333333299","912","513","2","0","1","1","1","","",""
"","psychophysics","486","1030693","0.0-2.0-2.150-0.150","9dq","[""l""]","","","","","","null","key","null","null","16.672288135593853","912","513","2","0","1","1","1","","",""
"","psychophysics","487","1032787","0.0-2.0-0.151","9dq","[""l""]","","","","","","1392","key","z","z","16.67239199999999","912","513","2","0","0","0","0","false","",""
"","psychophysics","488","1033795","0.0-2.0-1.151","9dq","[""l""]","","","","","","null","key","null","null","16.671186440677573","912","513","2","0","0","0","0","","",""
"","psychophysics","489","1034806","0.0-2.0-3.151-0.151","9dq","[""l""]","","","","","","null","key","null","null","16.672116666665534","912","513","2","0","0","0","0","","",""
"","psychophysics","490","1037396","0.0-2.0-0.152","9dq","[""l""]","","","","","","1886","key","m","m","16.67186363636404","912","513","2","1","0","1","1","true","",""
"","psychophysics","491","1038404","0.0-2.0-1.152","9dq","[""l""]","","","","","","null","key","null","null","16.672749999999844","912","513","2","1","0","1","1","","",""
"","psychophysics","492","1039413","0.0-2.0-2.152-0.152","9dq","[""l""]","","","","","","null","key","null","null","16.672372881356644","912","513","2","1","0","1","1","","",""
"","psychophysics","493","1041476","0.0-2.0-0.153","9dq","[""l""]","","","","","","1360","key","z","z","16.672276422763773","912","513","1","0","1","1","1","true","",""
"","psychophysics","494","1042483","0.0-2.0-1.153","9dq","[""l""]","","","","","","null","key","null","null","16.671864406777924","912","513","1","0","1","1","1","","",""
"","psychophysics","495","1043493","0.0-2.0-2.153-0.153","9dq","[""l""]","","","","","","null","key","null","null","16.672566666665563","912","513","1","0","1","1","1","","",""
"","psychophysics","496","1045252","0.0-2.0-0.154","9dq","[""l""]","","","","","","1055","key","m","m","16.67182692307688","912","513","2","1","0","1","1","true","",""
"","psychophysics","497","1046260","0.0-2.0-1.154","9dq","[""l""]","","","","","","null","key","null","null","16.67335000000118","912","513","2","1","0","1","1","","",""
"","psychophysics","498","1047269","0.0-2.0-2.154-0.154","9dq","[""l""]","","","","","","null","key","null","null","16.672474576270808","912","513","2","1","0","1","1","","",""
"","psychophysics","499","1050180","0.0-2.0-0.155","9dq","[""l""]","","","","","","2206","key","m","m","16.671942528735325","912","513","1","1","1","0","1","false","",""
"","psychophysics","500","1051192","0.0-2.0-1.155","9dq","[""l""]","","","","","","null","key","null","null","16.672683333333893","912","513","1","1","1","0","1","","",""
"","psychophysics","501","1052200","0.0-2.0-3.155-0.155","9dq","[""l""]","","","","","","null","key","null","null","16.67103389830534","912","513","1","1","1","0","1","","",""
"","psychophysics","502","1055243","0.0-2.0-0.156","9dq","[""l""]","","","","","","2339","key","z","z","16.671840659341427","912","513","1","0","1","0","1","true","",""
"","psychophysics","503","1056251","0.0-2.0-1.156","9dq","[""l""]","","","","","","null","key","null","null","16.67286440678004","912","513","1","0","1","0","1","","",""
"","psychophysics","504","1057262","0.0-2.0-2.156-0.156","9dq","[""l""]","","","","","","null","key","null","null","16.672350000000247","912","513","1","0","1","0","1","","",""
"","psychophysics","505","1059172","0.0-2.0-0.157","9dq","[""l""]","","","","","","1206","key","m","m","16.67216814159152","912","513","2","0","0","1","1","true","",""
"","psychophysics","506","1060179","0.0-2.0-1.157","9dq","[""l""]","","","","","","null","key","null","null","16.673183333330478","912","513","2","0","0","1","1","","",""
"","psychophysics","507","1061188","0.0-2.0-2.157-0.157","9dq","[""l""]","","","","","","null","key","null","null","16.672305084745226","912","513","2","0","0","1","1","","",""
"","psychophysics","508","1063540","0.0-2.0-0.158","9dq","[""l""]","","","","","","1645","key","z","z","16.671921428572386","912","513","1","0","0","1","0","true","",""
"","psychophysics","509","1064549","0.0-2.0-1.158","9dq","[""l""]","","","","","","null","key","null","null","16.67196666666617","912","513","1","0","0","1","0","","",""
"","psychophysics","510","1065554","0.0-2.0-2.158-0.158","9dq","[""l""]","","","","","","null","key","null","null","16.673033898301675","912","513","1","0","0","1","0","","",""
"","psychophysics","511","1067924","0.0-2.0-0.159","9dq","[""l""]","","","","","","1665","key","z","z","16.672290780140642","912","513","2","1","0","0","1","false","",""
"","psychophysics","512","1068933","0.0-2.0-1.159","9dq","[""l""]","","","","","","null","key","null","null","16.67221666666446","912","513","2","1","0","0","1","","",""
"","psychophysics","513","1069941","0.0-2.0-3.159-0.159","9dq","[""l""]","","","","","","null","key","null","null","16.670644067796104","912","513","2","1","0","0","1","","",""
"","psychophysics","514","1071949","0.0-2.0-0.160","9dq","[""l""]","","","","","","1301","key","m","m","16.67208333333256","912","513","1","0","0","1","0","false","",""
"","psychophysics","515","1072956","0.0-2.0-1.160","9dq","[""l""]","","","","","","null","key","null","null","16.67215254237102","912","513","1","0","0","1","0","","",""
"","psychophysics","516","1073965","0.0-2.0-3.160-0.160","9dq","[""l""]","","","","","","null","key","null","null","16.672566666667503","912","513","1","0","0","1","0","","",""
"","psychophysics","517","1077951","0.0-2.0-0.161","9dq","[""l""]","","","","","","3282","key","z","z","16.671848739496387","912","513","1","0","1","0","1","true","",""
"","psychophysics","518","1078958","0.0-2.0-1.161","9dq","[""l""]","","","","","","null","key","null","null","16.67184745762655","912","513","1","0","1","0","1","","",""
"","psychophysics","519","1079967","0.0-2.0-2.161-0.161","9dq","[""l""]","","","","","","null","key","null","null","16.67214999999851","912","513","1","0","1","0","1","","",""
"","psychophysics","520","1083340","0.0-2.0-0.162","9dq","[""l""]","","","","","","2668","key","m","m","16.671756218904537","912","513","2","0","0","1","1","true","",""
"","psychophysics","521","1084347","0.0-2.0-1.162","9dq","[""l""]","","","","","","null","key","null","null","16.672796610170597","912","513","2","0","0","1","1","","",""
"","psychophysics","522","1085356","0.0-2.0-2.162-0.162","9dq","[""l""]","","","","","","null","key","null","null","16.671933333331253","912","513","2","0","0","1","1","","",""
"","psychophysics","523","1087636","0.0-2.0-0.163","9dq","[""l""]","","","","","","1577","key","z","z","16.67192647058811","912","513","1","0","0","1","1","true","",""
"","psychophysics","524","1088644","0.0-2.0-1.163","9dq","[""l""]","","","","","","null","key","null","null","16.67098305084727","912","513","1","0","0","1","1","","",""
"","psychophysics","525","1089653","0.0-2.0-2.163-0.163","9dq","[""l""]","","","","","","null","key","null","null","16.672100000001954","912","513","1","0","0","1","1","","",""
"","psychophysics","526","1091907","0.0-2.0-0.164","9dq","[""l""]","","","","","","1549","key","z","z","16.671746268656467","912","513","1","1","1","1","1","true","",""
"","psychophysics","527","1092915","0.0-2.0-1.164","9dq","[""l""]","","","","","","null","key","null","null","16.672033898303507","912","513","1","1","1","1","1","","",""
"","psychophysics","528","1093924","0.0-2.0-2.164-0.164","9dq","[""l""]","","","","","","null","key","null","null","16.67198333333169","912","513","1","1","1","1","1","","",""
"","psychophysics","529","1095731","0.0-2.0-0.165","9dq","[""l""]","","","","","","1104","key","m","m","16.67191588785064","912","513","2","0","1","1","1","true","",""
"","psychophysics","530","1096739","0.0-2.0-1.165","9dq","[""l""]","","","","","","null","key","null","null","16.672549999998107","912","513","2","0","1","1","1","","",""
"","psychophysics","531","1097749","0.0-2.0-2.165-0.165","9dq","[""l""]","","","","","","null","key","null","null","16.67179661016848","912","513","2","0","1","1","1","","",""
"","psychophysics","532","1099851","0.0-2.0-0.166","9dq","[""l""]","","","","","","1395","key","m","m","16.672072000000625","912","513","2","0","0","1","0","true","",""
"","psychophysics","533","1100858","0.0-2.0-1.166","9dq","[""l""]","","","","","","null","key","null","null","16.672766666669244","912","513","2","0","0","1","0","","",""
"","psychophysics","534","1101866","0.0-2.0-2.166-0.166","9dq","[""l""]","","","","","","null","key","null","null","16.671830508475175","912","513","2","0","0","1","0","","",""
"","psychophysics","535","1107099","0.0-2.0-0.167","9dq","[""l""]","","","","","","4530","key","m","m","16.67202875399352","912","513","2","1","0","1","0","true","",""
"","psychophysics","536","1108109","0.0-2.0-1.167","9dq","[""l""]","","","","","","null","key","null","null","16.6733499999973","912","513","2","1","0","1","0","","",""
"","psychophysics","537","1109117","0.0-2.0-2.167-0.167","9dq","[""l""]","","","","","","null","key","null","null","16.67191525423994","912","513","2","1","0","1","0","","",""
"","psychophysics","538","1110771","0.0-2.0-0.168","9dq","[""l""]","","","","","","950","key","m","m","16.67208163265367","912","513","2","0","0","1","1","true","",""
"","psychophysics","539","1111781","0.0-2.0-1.168","9dq","[""l""]","","","","","","null","key","null","null","16.672450000001117","912","513","2","0","0","1","1","","",""
"","psychophysics","540","1112790","0.0-2.0-2.168-0.168","9dq","[""l""]","","","","","","null","key","null","null","16.672305084745226","912","513","2","0","0","1","1","","",""
"","psychophysics","541","1115419","0.0-2.0-0.169","9dq","[""l""]","","","","","","1925","key","m","m","16.67169426751596","912","513","2","0","0","0","1","true","",""
"","psychophysics","542","1116428","0.0-2.0-1.169","9dq","[""l""]","","","","","","null","key","null","null","16.67213333333299","912","513","2","0","0","0","1","","",""
"","psychophysics","543","1117437","0.0-2.0-2.169-0.169","9dq","[""l""]","","","","","","null","key","null","null","16.671661016949596","912","513","2","0","0","0","1","","",""
"","psychophysics","544","1119683","0.0-2.0-0.170","9dq","[""l""]","","","","","","1543","key","m","m","16.672276119402706","912","513","2","0","1","0","1","true","",""
"","psychophysics","545","1120690","0.0-2.0-1.170","9dq","[""l""]","","","","","","null","key","null","null","16.671440677965943","912","513","2","0","1","0","1","","",""
"","psychophysics","546","1121701","0.0-2.0-2.170-0.170","9dq","[""l""]","","","","","","null","key","null","null","16.669966666668188","912","513","2","0","1","0","1","","",""
"","psychophysics","547","1124965","0.0-2.0-0.171","9dq","[""l""]","","","","","","2563","key","m","m","16.672225641025804","912","513","2","0","1","1","1","true","",""
"","psychophysics","548","1125972","0.0-2.0-1.171","9dq","[""l""]","","","","","","null","key","null","null","16.6716271186429","912","513","2","0","1","1","1","","",""
"","psychophysics","549","1126982","0.0-2.0-2.171-0.171","9dq","[""l""]","","","","","","null","key","null","null","16.672266666664896","912","513","2","0","1","1","1","","",""
"","psychophysics","550","1130643","0.0-2.0-0.172","9dq","[""l""]","","","","","","2958","key","z","z","16.672018348623855","912","513","1","0","1","1","1","true","",""
"","psychophysics","551","1131652","0.0-2.0-1.172","9dq","[""l""]","","","","","","null","key","null","null","16.672450000001117","912","513","1","0","1","1","1","","",""
"","psychophysics","552","1132661","0.0-2.0-2.172-0.172","9dq","[""l""]","","","","","","null","key","null","null","16.671186440679545","912","513","1","0","1","1","1","","",""
"","psychophysics","553","1134668","0.0-2.0-0.173","9dq","[""l""]","","","","","","1301","key","m","m","16.67233333333279","912","513","1","1","0","0","1","false","",""
"","psychophysics","554","1135675","0.0-2.0-1.173","9dq","[""l""]","","","","","","null","key","null","null","16.672288135593853","912","513","1","1","0","0","1","","",""
"","psychophysics","555","1136687","0.0-2.0-3.173-0.173","9dq","[""l""]","","","","","","null","key","null","null","16.67278333333476","912","513","1","1","0","0","1","","",""
"","psychophysics","556","1138787","0.0-2.0-0.174","9dq","[""l""]","","","","","","1397","key","m","m","16.672160000000147","912","513","2","0","0","1","1","true","",""
"","psychophysics","557","1139794","0.0-2.0-1.174","9dq","[""l""]","","","","","","null","key","null","null","16.67147457627264","912","513","2","0","0","1","1","","",""
"","psychophysics","558","1140803","0.0-2.0-2.174-0.174","9dq","[""l""]","","","","","","null","key","null","null","16.672283333334295","912","513","2","0","0","1","1","","",""
"","psychophysics","559","1144492","0.0-2.0-0.175","9dq","[""l""]","","","","","","2985","key","m","m","16.672027272726833","912","513","2","1","1","0","1","true","",""
"","psychophysics","560","1145499","0.0-2.0-1.175","9dq","[""l""]","","","","","","null","key","null","null","16.67184745762655","912","513","2","1","1","0","1","","",""
"","psychophysics","561","1146509","0.0-2.0-2.175-0.175","9dq","[""l""]","","","","","","null","key","null","null","16.672933333332185","912","513","2","1","1","0","1","","",""
"","psychophysics","562","1149980","0.0-2.0-0.176","9dq","[""l""]","","","","","","2767","key","z","z","16.6721352657004","912","513","1","0","1","1","1","true","",""
"","psychophysics","563","1150989","0.0-2.0-1.176","9dq","[""l""]","","","","","","null","key","null","null","16.6724166666662","912","513","1","0","1","1","1","","",""
"","psychophysics","564","1151998","0.0-2.0-2.176-0.176","9dq","[""l""]","","","","","","null","key","null","null","16.671220338986238","912","513","1","0","1","1","1","","",""
"","psychophysics","565","1154059","0.0-2.0-0.177","9dq","[""l""]","","","","","","1358","key","m","m","16.672227642275544","912","513","1","1","0","0","1","false","",""
"","psychophysics","566","1155066","0.0-2.0-1.177","9dq","[""l""]","","","","","","null","key","null","null","16.67244067796411","912","513","1","1","0","0","1","","",""
"","psychophysics","567","1156075","0.0-2.0-3.177-0.177","9dq","[""l""]","","","","","","null","key","null","null","16.6724333333356","912","513","1","1","0","0","1","","",""
"","psychophysics","568","1159612","0.0-2.0-0.178","9dq","[""l""]","","","","","","2832","key","z","z","16.671639810426612","912","513","2","1","0","0","1","false","",""
"","psychophysics","569","1160620","0.0-2.0-1.178","9dq","[""l""]","","","","","","null","key","null","null","16.671288135591738","912","513","2","1","0","0","1","","",""
"","psychophysics","570","1161630","0.0-2.0-3.178-0.178","9dq","[""l""]","","","","","","null","key","null","null","16.671983333335568","912","513","2","1","0","0","1","","",""
"","psychophysics","571","1164467","0.0-2.0-0.179","9dq","[""l""]","","","","","","2134","key","z","z","16.672189349111598","912","513","2","0","1","1","0","false","",""
"","psychophysics","572","1165477","0.0-2.0-1.179","9dq","[""l""]","","","","","","null","key","null","null","16.673116666668406","912","513","2","0","1","1","0","","",""
"","psychophysics","573","1166485","0.0-2.0-3.179-0.179","9dq","[""l""]","","","","","","null","key","null","null","16.67184745762655","912","513","2","0","1","1","0","","",""
"","psychophysics","574","1168846","0.0-2.0-0.180","9dq","[""l""]","","","","","","1656","key","m","m","16.672453900709986","912","513","1","0","1","0","0","false","",""
"","psychophysics","575","1169853","0.0-2.0-1.180","9dq","[""l""]","","","","","","null","key","null","null","16.671932203387367","912","513","1","0","1","0","0","","",""
"","psychophysics","576","1170862","0.0-2.0-3.180-0.180","9dq","[""l""]","","","","","","null","key","null","null","16.670066666669058","912","513","1","0","1","0","0","","",""
"","psychophysics","577","1173676","0.0-2.0-0.181","9dq","[""l""]","","","","","","2110","key","z","z","16.672077844311165","912","513","2","1","0","0","0","false","",""
"","psychophysics","578","1174684","0.0-2.0-1.181","9dq","[""l""]","","","","","","null","key","null","null","16.67231666666533","912","513","2","1","0","0","0","","",""
