"success","trial_type","trial_index","time_elapsed","internal_node_id","subject","condition","timeout","failed_images","failed_audio","failed_video","view_history","rt","response_type","key_press","response","avg_frame_time","center_x","center_y","outcome","p1conf","p2conf","p1rslt","p2rslt","correct","stimulus","question_order"
"true","fullscreen","0","2487","0.0-0.0-0.0","afa","[""l""]","","","","","","","","","","","","","","","","","","","",""
"true","preload","1","2493","0.0-0.0-1.0","afa","[""l""]","false","[]","[]","[]","","","","","","","","","","","","","","","",""
"","instructions","2","179797","0.0-1.0","afa","[""l""]","","","","","[{""page_index"":0,""viewing_time"":139083},{""page_index"":1,""viewing_time"":16793},{""page_index"":2,""viewing_time"":21424}]","177301","","","","","","","","","","","","","",""
"","psychophysics","3","184813","0.0-2.0-0.0","afa","[""l""]","","","","","","4298","key","z","z","16.752638795986588","912","513","2","0","0","1","0","false","",""
"","psychophysics","4","185823","0.0-2.0-1.0","afa","[""l""]","","","","","","null","key","null","null","16.67275000000033","912","513","2","0","0","1","0","","",""
"","psychophysics","5","186835","0.0-2.0-3.0-0.0","afa","[""l""]","","","","","","null","key","null","null","16.672983333333104","912","513","2","0","0","1","0","","",""
"","psychophysics","6","190562","0.0-2.0-0.1","afa","[""l""]","","","","","","3021","key","m","m","16.67187837837841","912","513","2","1","1","1","1","true","",""
"","psychophysics","7","191571","0.0-2.0-1.1","afa","[""l""]","","","","","","null","key","null","null","16.672849999999745","912","513","2","1","1","1","1","","",""
"","psychophysics","8","192582","0.0-2.0-2.1-0.1","afa","[""l""]","","","","","","null","key","null","null","16.67198305084741","912","513","2","1","1","1","1","","",""
"","psychophysics","9","195106","0.0-2.0-0.2","afa","[""l""]","","","","","","1817","key","z","z","16.672245033112716","912","513","1","1","0","1","1","true","",""
"","psychophysics","10","196114","0.0-2.0-1.2","afa","[""l""]","","","","","","null","key","null","null","16.67262711864403","912","513","1","1","0","1","1","","",""
"","psychophysics","11","197124","0.0-2.0-2.2-0.2","afa","[""l""]","","","","","","null","key","null","null","16.672550000000047","912","513","1","1","0","1","1","","",""
"","psychophysics","12","201158","0.0-2.0-0.3","afa","[""l""]","","","","","","3330","key","z","z","16.67184647302908","912","513","1","0","0","1","0","true","",""
"","psychophysics","13","202166","0.0-2.0-1.3","afa","[""l""]","","","","","","null","key","null","null","16.67205084745784","912","513","1","0","0","1","0","","",""
"","psychophysics","14","203177","0.0-2.0-2.3-0.3","afa","[""l""]","","","","","","null","key","null","null","16.67258333333351","912","513","1","0","0","1","0","","",""
"","psychophysics","15","205339","0.0-2.0-0.4","afa","[""l""]","","","","","","1457","key","z","z","16.671695312500106","912","513","1","0","1","1","1","true","",""
"","psychophysics","16","206347","0.0-2.0-1.4","afa","[""l""]","","","","","","null","key","null","null","16.672883333333207","912","513","1","0","1","1","1","","",""
"","psychophysics","17","207359","0.0-2.0-2.4-0.4","afa","[""l""]","","","","","","null","key","null","null","16.67216666666694","912","513","1","0","1","1","1","","",""
"","psychophysics","18","212066","0.0-2.0-0.5","afa","[""l""]","","","","","","4004","key","z","z","16.671818505338035","912","513","2","1","1","0","1","false","",""
"","psychophysics","19","213077","0.0-2.0-1.5","afa","[""l""]","","","","","","null","key","null","null","16.672850000000228","912","513","2","1","1","0","1","","",""
"","psychophysics","20","214086","0.0-2.0-3.5-0.5","afa","[""l""]","","","","","","null","key","null","null","16.672576271186454","912","513","2","1","1","0","1","","",""
"","psychophysics","21","216402","0.0-2.0-0.6","afa","[""l""]","","","","","","1611","key","z","z","16.672036231884125","912","513","1","0","1","1","1","true","",""
"","psychophysics","22","217412","0.0-2.0-1.6","afa","[""l""]","","","","","","null","key","null","null","16.672699999999896","912","513","1","0","1","1","1","","",""
"","psychophysics","23","218421","0.0-2.0-2.6-0.6","afa","[""l""]","","","","","","null","key","null","null","16.67210169491492","912","513","1","0","1","1","1","","",""
"","psychophysics","24","220866","0.0-2.0-0.7","afa","[""l""]","","","","","","1741","key","z","z","16.672178082191625","912","513","1","1","0","1","1","true","",""
"","psychophysics","25","221874","0.0-2.0-1.7","afa","[""l""]","","","","","","null","key","null","null","16.671677966101463","912","513","1","1","0","1","1","","",""
"","psychophysics","26","222884","0.0-2.0-2.7-0.7","afa","[""l""]","","","","","","null","key","null","null","16.67275000000033","912","513","1","1","0","1","1","","",""
"","psychophysics","27","225386","0.0-2.0-0.8","afa","[""l""]","","","","","","1798","key","m","m","16.67225503355703","912","513","2","1","1","1","1","true","",""
"","psychophysics","28","226398","0.0-2.0-1.8","afa","[""l""]","","","","","","null","key","null","null","16.67270000000038","912","513","2","1","1","1","1","","",""
"","psychophysics","29","227407","0.0-2.0-2.8-0.8","afa","[""l""]","","","","","","null","key","null","null","16.671711864406678","912","513","2","1","1","1","1","","",""
"","psychophysics","30","230242","0.0-2.0-0.9","afa","[""l""]","","","","","","2130","key","m","m","16.672147928994043","912","513","2","0","1","0","1","true","",""
"","psychophysics","31","231251","0.0-2.0-1.9","afa","[""l""]","","","","","","null","key","null","null","16.672950000000128","912","513","2","0","1","0","1","","",""
"","psychophysics","32","232259","0.0-2.0-2.9-0.9","afa","[""l""]","","","","","","null","key","null","null","16.669033898305052","912","513","2","0","1","0","1","","",""
"","psychophysics","33","234451","0.0-2.0-0.10","afa","[""l""]","","","","","","1490","key","m","m","16.672854961832062","912","513","2","0","0","1","1","true","",""
"","psychophysics","34","235458","0.0-2.0-1.10","afa","[""l""]","","","","","","null","key","null","null","16.672016949152624","912","513","2","0","0","1","1","","",""
"","psychophysics","35","236468","0.0-2.0-2.10-0.10","afa","[""l""]","","","","","","null","key","null","null","16.672866666666717","912","513","2","0","0","1","1","","",""
"","psychophysics","36","238915","0.0-2.0-0.11","afa","[""l""]","","","","","","1743","key","m","m","16.671875862068905","912","513","1","0","1","1","0","false","",""
"","psychophysics","37","239923","0.0-2.0-1.11","afa","[""l""]","","","","","","null","key","null","null","16.672883333333207","912","513","1","0","1","1","0","","",""
"","psychophysics","38","240932","0.0-2.0-3.11-0.11","afa","[""l""]","","","","","","null","key","null","null","16.672932203389482","912","513","1","0","1","1","0","","",""
"","psychophysics","39","243467","0.0-2.0-0.12","afa","[""l""]","","","","","","1830","key","z","z","16.671821192053027","912","513","1","0","0","1","1","true","",""
"","psychophysics","40","244474","0.0-2.0-1.12","afa","[""l""]","","","","","","null","key","null","null","16.673333333333236","912","513","1","0","0","1","1","","",""
"","psychophysics","41","245484","0.0-2.0-2.12-0.12","afa","[""l""]","","","","","","null","key","null","null","16.67296610169519","912","513","1","0","0","1","1","","",""
"","psychophysics","42","247410","0.0-2.0-0.13","afa","[""l""]","","","","","","1222","key","z","z","16.671834782608684","912","513","1","0","1","1","1","true","",""
"","psychophysics","43","248417","0.0-2.0-1.13","afa","[""l""]","","","","","","null","key","null","null","16.672169491525846","912","513","1","0","1","1","1","","",""
"","psychophysics","44","249427","0.0-2.0-2.13-0.13","afa","[""l""]","","","","","","null","key","null","null","16.672916666666666","912","513","1","0","1","1","1","","",""
"","psychophysics","45","251658","0.0-2.0-0.14","afa","[""l""]","","","","","","1527","key","m","m","16.67251127819562","912","513","2","0","1","1","1","true","",""
"","psychophysics","46","252666","0.0-2.0-1.14","afa","[""l""]","","","","","","null","key","null","null","16.673084745762704","912","513","2","0","1","1","1","","",""
"","psychophysics","47","253676","0.0-2.0-2.14-0.14","afa","[""l""]","","","","","","null","key","null","null","16.678683333333176","912","513","2","0","1","1","1","","",""
"","psychophysics","48","255946","0.0-2.0-0.15","afa","[""l""]","","","","","","1567","key","m","m","16.671837037037065","912","513","2","1","1","1","1","true","",""
"","psychophysics","49","256954","0.0-2.0-1.15","afa","[""l""]","","","","","","null","key","null","null","16.672762711864394","912","513","2","1","1","1","1","","",""
"","psychophysics","50","257963","0.0-2.0-2.15-0.15","afa","[""l""]","","","","","","null","key","null","null","16.672050000000066","912","513","2","1","1","1","1","","",""
"","psychophysics","51","259986","0.0-2.0-0.16","afa","[""l""]","","","","","","1319","key","z","z","16.672416666666685","912","513","1","1","1","1","1","true","",""
"","psychophysics","52","260994","0.0-2.0-1.16","afa","[""l""]","","","","","","null","key","null","null","16.67408333333345","912","513","1","1","1","1","1","","",""
"","psychophysics","53","262003","0.0-2.0-2.16-0.16","afa","[""l""]","","","","","","null","key","null","null","16.671932203389833","912","513","1","1","1","1","1","","",""
"","psychophysics","54","263746","0.0-2.0-0.17","afa","[""l""]","","","","","","1037","key","z","z","16.672423076922804","912","513","1","1","1","1","1","true","",""
"","psychophysics","55","264753","0.0-2.0-1.17","afa","[""l""]","","","","","","null","key","null","null","16.67189830508462","912","513","1","1","1","1","1","","",""
"","psychophysics","56","265763","0.0-2.0-2.17-0.17","afa","[""l""]","","","","","","null","key","null","null","16.67196666666714","912","513","1","1","1","1","1","","",""
"","psychophysics","57","267850","0.0-2.0-0.18","afa","[""l""]","","","","","","1382","key","z","z","16.67173387096761","912","513","1","1","0","1","1","true","",""
"","psychophysics","58","268857","0.0-2.0-1.18","afa","[""l""]","","","","","","null","key","null","null","16.672474576270808","912","513","1","1","0","1","1","","",""
"","psychophysics","59","269867","0.0-2.0-2.18-0.18","afa","[""l""]","","","","","","null","key","null","null","16.67198333333266","912","513","1","1","0","1","1","","",""
"","psychophysics","60","272434","0.0-2.0-0.19","afa","[""l""]","","","","","","1863","key","m","m","16.672241830065378","912","513","2","1","1","1","1","true","",""
"","psychophysics","61","273441","0.0-2.0-1.19","afa","[""l""]","","","","","","null","key","null","null","16.672288135592865","912","513","2","1","1","1","1","","",""
"","psychophysics","62","274451","0.0-2.0-2.19-0.19","afa","[""l""]","","","","","","null","key","null","null","16.672766666666334","912","513","2","1","1","1","1","","",""
"","psychophysics","63","276314","0.0-2.0-0.20","afa","[""l""]","","","","","","1160","key","z","z","16.672333333332947","912","513","1","1","1","1","1","true","",""
"","psychophysics","64","277323","0.0-2.0-1.20","afa","[""l""]","","","","","","null","key","null","null","16.67333898305009","912","513","1","1","1","1","1","","",""
"","psychophysics","65","278333","0.0-2.0-2.20-0.20","afa","[""l""]","","","","","","null","key","null","null","16.672916666666666","912","513","1","1","1","1","1","","",""
"","psychophysics","66","281562","0.0-2.0-0.21","afa","[""l""]","","","","","","2526","key","z","z","16.671802083333205","912","513","1","0","0","0","1","true","",""
"","psychophysics","67","282570","0.0-2.0-1.21","afa","[""l""]","","","","","","null","key","null","null","16.672916666666666","912","513","1","0","0","0","1","","",""
"","psychophysics","68","283578","0.0-2.0-2.21-0.21","afa","[""l""]","","","","","","null","key","null","null","16.672983050847552","912","513","1","0","0","0","1","","",""
"","psychophysics","69","286274","0.0-2.0-0.22","afa","[""l""]","","","","","","1990","key","z","z","16.67195031055906","912","513","1","0","0","1","0","true","",""
"","psychophysics","70","287284","0.0-2.0-1.22","afa","[""l""]","","","","","","null","key","null","null","16.672666666666434","912","513","1","0","0","1","0","","",""
"","psychophysics","71","288293","0.0-2.0-2.22-0.22","afa","[""l""]","","","","","","null","key","null","null","16.67127118644135","912","513","1","0","0","1","0","","",""
"","psychophysics","72","290490","0.0-2.0-0.23","afa","[""l""]","","","","","","1493","key","z","z","16.672122137404656","912","513","1","1","0","1","1","true","",""
"","psychophysics","73","291498","0.0-2.0-1.23","afa","[""l""]","","","","","","null","key","null","null","16.67266101694875","912","513","1","1","0","1","1","","",""
"","psychophysics","74","292507","0.0-2.0-2.23-0.23","afa","[""l""]","","","","","","null","key","null","null","16.67215000000045","912","513","1","1","0","1","1","","",""
"","psychophysics","75","294610","0.0-2.0-0.24","afa","[""l""]","","","","","","1399","key","m","m","16.67219999999972","912","513","2","1","1","1","1","true","",""
"","psychophysics","76","295620","0.0-2.0-1.24","afa","[""l""]","","","","","","null","key","null","null","16.67178333333383","912","513","2","1","1","1","1","","",""
"","psychophysics","77","296629","0.0-2.0-2.24-0.24","afa","[""l""]","","","","","","null","key","null","null","16.67181355932183","912","513","2","1","1","1","1","","",""
"","psychophysics","78","298793","0.0-2.0-0.25","afa","[""l""]","","","","","","1461","key","z","z","16.672364341085164","912","513","1","0","0","1","1","true","",""
"","psychophysics","79","299804","0.0-2.0-1.25","afa","[""l""]","","","","","","null","key","null","null","16.67281666666677","912","513","1","0","0","1","1","","",""
"","psychophysics","80","300814","0.0-2.0-2.25-0.25","afa","[""l""]","","","","","","null","key","null","null","16.67167796610097","912","513","1","0","0","1","1","","",""
"","psychophysics","81","302682","0.0-2.0-0.26","afa","[""l""]","","","","","","1160","key","m","m","16.672279279279472","912","513","2","0","0","1","1","true","",""
"","psychophysics","82","303690","0.0-2.0-1.26","afa","[""l""]","","","","","","null","key","null","null","16.672649999999944","912","513","2","0","0","1","1","","",""
"","psychophysics","83","304700","0.0-2.0-2.26-0.26","afa","[""l""]","","","","","","null","key","null","null","16.671355932203152","912","513","2","0","0","1","1","","",""
"","psychophysics","84","307570","0.0-2.0-0.27","afa","[""l""]","","","","","","2163","key","m","m","16.672491228070427","912","513","2","1","0","1","1","true","",""
"","psychophysics","85","308578","0.0-2.0-1.27","afa","[""l""]","","","","","","null","key","null","null","16.67270000000038","912","513","2","1","0","1","1","","",""
"","psychophysics","86","309586","0.0-2.0-2.27-0.27","afa","[""l""]","","","","","","null","key","null","null","16.672762711864888","912","513","2","1","0","1","1","","",""
"","psychophysics","87","311729","0.0-2.0-0.28","afa","[""l""]","","","","","","1439","key","m","m","16.67182031250013","912","513","2","1","1","1","1","true","",""
"","psychophysics","88","312736","0.0-2.0-1.28","afa","[""l""]","","","","","","null","key","null","null","16.672220338982434","912","513","2","1","1","1","1","","",""
"","psychophysics","89","313746","0.0-2.0-2.28-0.28","afa","[""l""]","","","","","","null","key","null","null","16.67281666666677","912","513","2","1","1","1","1","","",""
"","psychophysics","90","315498","0.0-2.0-0.29","afa","[""l""]","","","","","","1048","key","m","m","16.67215384615366","912","513","2","1","1","1","1","true","",""
"","psychophysics","91","316505","0.0-2.0-1.29","afa","[""l""]","","","","","","null","key","null","null","16.67291525423712","912","513","2","1","1","1","1","","",""
"","psychophysics","92","317516","0.0-2.0-2.29-0.29","afa","[""l""]","","","","","","null","key","null","null","16.67216666666694","912","513","2","1","1","1","1","","",""
"","psychophysics","93","319561","0.0-2.0-0.30","afa","[""l""]","","","","","","1341","key","z","z","16.67227868852492","912","513","1","0","1","1","1","true","",""
"","psychophysics","94","320569","0.0-2.0-1.30","afa","[""l""]","","","","","","null","key","null","null","16.672932203389482","912","513","1","0","1","1","1","","",""
"","psychophysics","95","321580","0.0-2.0-2.30-0.30","afa","[""l""]","","","","","","null","key","null","null","16.672500000000582","912","513","1","0","1","1","1","","",""
"","psychophysics","96","323428","0.0-2.0-0.31","afa","[""l""]","","","","","","1144","key","z","z","16.67191818181785","912","513","1","1","1","1","1","true","",""
"","psychophysics","97","324436","0.0-2.0-1.31","afa","[""l""]","","","","","","null","key","null","null","16.67203389830449","912","513","1","1","1","1","1","","",""
"","psychophysics","98","325446","0.0-2.0-2.31-0.31","afa","[""l""]","","","","","","null","key","null","null","16.67286666666623","912","513","1","1","1","1","1","","",""
"","psychophysics","99","327465","0.0-2.0-0.32","afa","[""l""]","","","","","","1316","key","m","m","16.67229166666657","912","513","2","1","1","1","1","true","",""
"","psychophysics","100","328473","0.0-2.0-1.32","afa","[""l""]","","","","","","null","key","null","null","16.672677966102096","912","513","2","1","1","1","1","","",""
"","psychophysics","101","329482","0.0-2.0-2.32-0.32","afa","[""l""]","","","","","","null","key","null","null","16.672666666666434","912","513","2","1","1","1","1","","",""
"","psychophysics","102","331433","0.0-2.0-0.33","afa","[""l""]","","","","","","1248","key","m","m","16.67200862068948","912","513","2","1","0","1","1","true","",""
"","psychophysics","103","332441","0.0-2.0-1.33","afa","[""l""]","","","","","","null","key","null","null","16.67199999999977","912","513","2","1","0","1","1","","",""
"","psychophysics","104","333451","0.0-2.0-2.33-0.33","afa","[""l""]","","","","","","null","key","null","null","16.672833333334225","912","513","2","1","0","1","1","","",""
"","psychophysics","105","336716","0.0-2.0-0.34","afa","[""l""]","","","","","","2561","key","z","z","16.6721692307691","912","513","2","0","0","1","0","false","",""
"","psychophysics","106","337724","0.0-2.0-1.34","afa","[""l""]","","","","","","null","key","null","null","16.673084745762704","912","513","2","0","0","1","0","","",""
"","psychophysics","107","338735","0.0-2.0-3.34-0.34","afa","[""l""]","","","","","","null","key","null","null","16.67196666666714","912","513","2","0","0","1","0","","",""
"","psychophysics","108","342514","0.0-2.0-0.35","afa","[""l""]","","","","","","3074","key","m","m","16.671657777777874","912","513","2","1","0","1","0","true","",""
"","psychophysics","109","343523","0.0-2.0-1.35","afa","[""l""]","","","","","","null","key","null","null","16.67296666666613","912","513","2","1","0","1","0","","",""
"","psychophysics","110","344534","0.0-2.0-2.35-0.35","afa","[""l""]","","","","","","null","key","null","null","16.671899999999248","912","513","2","1","0","1","0","","",""
"","psychophysics","111","346545","0.0-2.0-0.36","afa","[""l""]","","","","","","1308","key","m","m","16.67149579831929","912","513","2","0","1","1","1","true","",""
"","psychophysics","112","347553","0.0-2.0-1.36","afa","[""l""]","","","","","","null","key","null","null","16.67271666666687","912","513","2","0","1","1","1","","",""
"","psychophysics","113","348562","0.0-2.0-2.36-0.36","afa","[""l""]","","","","","","null","key","null","null","16.671644067796247","912","513","2","0","1","1","1","","",""
"","psychophysics","114","350804","0.0-2.0-0.37","afa","[""l""]","","","","","","1534","key","m","m","16.67228358208963","912","513","1","0","1","1","0","false","",""
"","psychophysics","115","351810","0.0-2.0-1.37","afa","[""l""]","","","","","","null","key","null","null","16.672355932203295","912","513","1","0","1","1","0","","",""
"","psychophysics","116","352820","0.0-2.0-3.37-0.37","afa","[""l""]","","","","","","null","key","null","null","16.67296666666613","912","513","1","0","1","1","0","","",""
"","psychophysics","117","355810","0.0-2.0-0.38","afa","[""l""]","","","","","","2286","key","m","m","16.671769662921413","912","513","2","0","0","1","1","true","",""
"","psychophysics","118","356818","0.0-2.0-1.38","afa","[""l""]","","","","","","null","key","null","null","16.672474576271796","912","513","2","0","0","1","1","","",""
"","psychophysics","119","357827","0.0-2.0-2.38-0.38","afa","[""l""]","","","","","","null","key","null","null","16.671933333333193","912","513","2","0","0","1","1","","",""
"","psychophysics","120","361324","0.0-2.0-0.39","afa","[""l""]","","","","","","2793","key","z","z","16.67213397129198","912","513","1","0","1","0","1","true","",""
"","psychophysics","121","362331","0.0-2.0-1.39","afa","[""l""]","","","","","","null","key","null","null","16.671644067797235","912","513","1","0","1","0","1","","",""
"","psychophysics","122","363351","0.0-2.0-2.39-0.39","afa","[""l""]","","","","","","null","key","null","null","16.673083333333487","912","513","1","0","1","0","1","","",""
"","psychophysics","123","366058","0.0-2.0-0.40","afa","[""l""]","","","","","","2000","key","z","z","16.672290123456925","912","513","2","1","0","0","1","false","",""
"","psychophysics","124","367066","0.0-2.0-1.40","afa","[""l""]","","","","","","null","key","null","null","16.67198305084741","912","513","2","1","0","0","1","","",""
"","psychophysics","125","368075","0.0-2.0-3.40-0.40","afa","[""l""]","","","","","","null","key","null","null","16.672833333333255","912","513","2","1","0","0","1","","",""
"","psychophysics","126","372193","0.0-2.0-0.41","afa","[""l""]","","","","","","3413","key","m","m","16.671764227642104","912","513","1","0","1","1","0","false","",""
"","psychophysics","127","373201","0.0-2.0-1.41","afa","[""l""]","","","","","","null","key","null","null","16.671711864406678","912","513","1","0","1","1","0","","",""
"","psychophysics","128","374210","0.0-2.0-3.41-0.41","afa","[""l""]","","","","","","null","key","null","null","16.672566666666533","912","513","1","0","1","1","0","","",""
"","psychophysics","129","376245","0.0-2.0-0.42","afa","[""l""]","","","","","","1331","key","z","z","16.67140495867761","912","513","1","1","1","1","1","true","",""
"","psychophysics","130","377252","0.0-2.0-1.42","afa","[""l""]","","","","","","null","key","null","null","16.671525423728735","912","513","1","1","1","1","1","","",""
"","psychophysics","131","378262","0.0-2.0-2.42-0.42","afa","[""l""]","","","","","","null","key","null","null","16.67279999999931","912","513","1","1","1","1","1","","",""
"","psychophysics","132","381226","0.0-2.0-0.43","afa","[""l""]","","","","","","2261","key","z","z","16.67182386363625","912","513","2","0","0","1","0","false","",""
"","psychophysics","133","382233","0.0-2.0-1.43","afa","[""l""]","","","","","","null","key","null","null","16.67281666666677","912","513","2","0","0","1","0","","",""
"","psychophysics","134","383242","0.0-2.0-3.43-0.43","afa","[""l""]","","","","","","null","key","null","null","16.67283050847433","912","513","2","0","0","1","0","","",""
"","psychophysics","135","385041","0.0-2.0-0.44","afa","[""l""]","","","","","","1094","key","m","m","16.672037383177532","912","513","1","0","0","0","0","false","",""
"","psychophysics","136","386051","0.0-2.0-1.44","afa","[""l""]","","","","","","null","key","null","null","16.67290000000018","912","513","1","0","0","0","0","","",""
"","psychophysics","137","387059","0.0-2.0-3.44-0.44","afa","[""l""]","","","","","","null","key","null","null","16.672440677966087","912","513","1","0","0","0","0","","",""
"","psychophysics","138","388809","0.0-2.0-0.45","afa","[""l""]","","","","","","1044","key","m","m","16.67249038461495","912","513","1","0","0","0","0","false","",""
"","psychophysics","139","389818","0.0-2.0-1.45","afa","[""l""]","","","","","","null","key","null","null","16.67305000000051","912","513","1","0","0","0","0","","",""
"","psychophysics","140","390826","0.0-2.0-3.45-0.45","afa","[""l""]","","","","","","null","key","null","null","16.671525423728735","912","513","1","0","0","0","0","","",""
"","psychophysics","141","392961","0.0-2.0-0.46","afa","[""l""]","","","","","","1428","key","z","z","16.67231496063008","912","513","1","0","0","1","1","true","",""
"","psychophysics","142","393970","0.0-2.0-1.46","afa","[""l""]","","","","","","null","key","null","null","16.67261666666697","912","513","1","0","0","1","1","","",""
"","psychophysics","143","394979","0.0-2.0-2.46-0.46","afa","[""l""]","","","","","","null","key","null","null","16.671949152542688","912","513","1","0","0","1","1","","",""
"","psychophysics","144","397068","0.0-2.0-0.47","afa","[""l""]","","","","","","1385","key","z","z","16.672263999999966","912","513","1","0","1","1","1","true","",""
"","psychophysics","145","398075","0.0-2.0-1.47","afa","[""l""]","","","","","","null","key","null","null","16.6720677966102","912","513","1","0","1","1","1","","",""
"","psychophysics","146","399085","0.0-2.0-2.47-0.47","afa","[""l""]","","","","","","null","key","null","null","16.672833333333255","912","513","1","0","1","1","1","","",""
"","psychophysics","147","401803","0.0-2.0-0.48","afa","[""l""]","","","","","","2014","key","z","z","16.67185802469145","912","513","2","0","0","1","0","false","",""
"","psychophysics","148","402810","0.0-2.0-1.48","afa","[""l""]","","","","","","null","key","null","null","16.671949152542688","912","513","2","0","0","1","0","","",""
"","psychophysics","149","403821","0.0-2.0-3.48-0.48","afa","[""l""]","","","","","","null","key","null","null","16.672566666666533","912","513","2","0","0","1","0","","",""
"","psychophysics","150","405787","0.0-2.0-0.49","afa","[""l""]","","","","","","1264","key","m","m","16.671803418803627","912","513","2","0","0","1","1","true","",""
"","psychophysics","151","406795","0.0-2.0-1.49","afa","[""l""]","","","","","","null","key","null","null","16.67199999999977","912","513","2","0","0","1","1","","",""
"","psychophysics","152","407806","0.0-2.0-2.49-0.49","afa","[""l""]","","","","","","null","key","null","null","16.672349999999277","912","513","2","0","0","1","1","","",""
"","psychophysics","153","409956","0.0-2.0-0.50","afa","[""l""]","","","","","","1446","key","z","z","16.6721484374998","912","513","2","1","0","0","1","false","",""
"","psychophysics","154","410974","0.0-2.0-1.50","afa","[""l""]","","","","","","null","key","null","null","16.67273333333336","912","513","2","1","0","0","1","","",""
"","psychophysics","155","411982","0.0-2.0-3.50-0.50","afa","[""l""]","","","","","","null","key","null","null","16.672745762712527","912","513","2","1","0","0","1","","",""
"","psychophysics","156","417541","0.0-2.0-0.51","afa","[""l""]","","","","","","4852","key","z","z","16.671861861861807","912","513","1","0","0","1","0","true","",""
"","psychophysics","157","418548","0.0-2.0-1.51","afa","[""l""]","","","","","","null","key","null","null","16.672355932203295","912","513","1","0","0","1","0","","",""
"","psychophysics","158","419558","0.0-2.0-2.51-0.51","afa","[""l""]","","","","","","null","key","null","null","16.67288333333369","912","513","1","0","0","1","0","","",""
"","psychophysics","159","422081","0.0-2.0-0.52","afa","[""l""]","","","","","","1819","key","m","m","16.671986666666733","912","513","1","0","1","1","0","false","",""
"","psychophysics","160","423088","0.0-2.0-1.52","afa","[""l""]","","","","","","null","key","null","null","16.67254237288124","912","513","1","0","1","1","0","","",""
"","psychophysics","161","424097","0.0-2.0-3.52-0.52","afa","[""l""]","","","","","","null","key","null","null","16.672033333333093","912","513","1","0","1","1","0","","",""
"","psychophysics","162","426137","0.0-2.0-0.53","afa","[""l""]","","","","","","1337","key","z","z","16.672330578512508","912","513","1","1","1","1","1","true","",""
"","psychophysics","163","427146","0.0-2.0-1.53","afa","[""l""]","","","","","","null","key","null","null","16.672350000000247","912","513","1","1","1","1","1","","",""
"","psychophysics","164","428155","0.0-2.0-2.53-0.53","afa","[""l""]","","","","","","null","key","null","null","16.67096610169491","912","513","1","1","1","1","1","","",""
"","psychophysics","165","430905","0.0-2.0-0.54","afa","[""l""]","","","","","","2045","key","m","m","16.672073170731537","912","513","2","0","1","1","1","true","",""
"","psychophysics","166","431914","0.0-2.0-1.54","afa","[""l""]","","","","","","null","key","null","null","16.67290000000018","912","513","2","0","1","1","1","","",""
"","psychophysics","167","432923","0.0-2.0-2.54-0.54","afa","[""l""]","","","","","","null","key","null","null","16.672593220339305","912","513","2","0","1","1","1","","",""
"","psychophysics","168","435537","0.0-2.0-0.55","afa","[""l""]","","","","","","1908","key","m","m","16.672217948718192","912","513","2","1","0","1","1","true","",""
"","psychophysics","169","436546","0.0-2.0-1.55","afa","[""l""]","","","","","","null","key","null","null","16.672766666666334","912","513","2","1","0","1","1","","",""
"","psychophysics","170","437555","0.0-2.0-2.55-0.55","afa","[""l""]","","","","","","null","key","null","null","16.671864406779896","912","513","2","1","0","1","1","","",""
"","psychophysics","171","439433","0.0-2.0-0.56","afa","[""l""]","","","","","","1174","key","z","z","16.672294642856805","912","513","1","0","0","1","1","true","",""
"","psychophysics","172","440440","0.0-2.0-1.56","afa","[""l""]","","","","","","null","key","null","null","16.6717457627114","912","513","1","0","0","1","1","","",""
"","psychophysics","173","441451","0.0-2.0-2.56-0.56","afa","[""l""]","","","","","","null","key","null","null","16.67278333333379","912","513","1","0","0","1","1","","",""
"","psychophysics","174","444449","0.0-2.0-0.57","afa","[""l""]","","","","","","2295","key","z","z","16.67208938547488","912","513","2","0","1","1","0","false","",""
"","psychophysics","175","445456","0.0-2.0-1.57","afa","[""l""]","","","","","","null","key","null","null","16.671915254237966","912","513","2","0","1","1","0","","",""
"","psychophysics","176","446466","0.0-2.0-3.57-0.57","afa","[""l""]","","","","","","null","key","null","null","16.673083333333487","912","513","2","0","1","1","0","","",""
"","psychophysics","177","448617","0.0-2.0-0.58","afa","[""l""]","","","","","","1446","key","z","z","16.67181249999976","912","513","1","1","0","1","1","true","",""
"","psychophysics","178","449624","0.0-2.0-1.58","afa","[""l""]","","","","","","null","key","null","null","16.671694915254317","912","513","1","1","0","1","1","","",""
"","psychophysics","179","450643","0.0-2.0-2.58-0.58","afa","[""l""]","","","","","","null","key","null","null","16.67271666666687","912","513","1","1","0","1","1","","",""
"","psychophysics","180","452545","0.0-2.0-0.59","afa","[""l""]","","","","","","1194","key","z","z","16.671849557522073","912","513","1","1","0","1","1","true","",""
"","psychophysics","181","453554","0.0-2.0-1.59","afa","[""l""]","","","","","","null","key","null","null","16.67278333333379","912","513","1","1","0","1","1","","",""
"","psychophysics","182","454564","0.0-2.0-2.59-0.59","afa","[""l""]","","","","","","null","key","null","null","16.67291525423712","912","513","1","1","0","1","1","","",""
"","psychophysics","183","456577","0.0-2.0-0.60","afa","[""l""]","","","","","","1308","key","z","z","16.67205833333331","912","513","1","0","0","1","1","true","",""
"","psychophysics","184","457585","0.0-2.0-1.60","afa","[""l""]","","","","","","null","key","null","null","16.673016666666566","912","513","1","0","0","1","1","","",""
"","psychophysics","185","458594","0.0-2.0-2.60-0.60","afa","[""l""]","","","","","","null","key","null","null","16.67184745762655","912","513","1","0","0","1","1","","",""
"","psychophysics","186","460657","0.0-2.0-0.61","afa","[""l""]","","","","","","1358","key","m","m","16.672081300813225","912","513","2","0","0","1","1","true","",""
"","psychophysics","187","461664","0.0-2.0-1.61","afa","[""l""]","","","","","","null","key","null","null","16.671711864406678","912","513","2","0","0","1","1","","",""
"","psychophysics","188","462673","0.0-2.0-2.61-0.61","afa","[""l""]","","","","","","null","key","null","null","16.67270000000038","912","513","2","0","0","1","1","","",""
"","psychophysics","189","466529","0.0-2.0-0.62","afa","[""l""]","","","","","","3151","key","m","m","16.671830434782642","912","513","1","1","0","0","1","false","",""
"","psychophysics","190","467538","0.0-2.0-1.62","afa","[""l""]","","","","","","null","key","null","null","16.672633333333458","912","513","1","1","0","0","1","","",""
"","psychophysics","191","468547","0.0-2.0-3.62-0.62","afa","[""l""]","","","","","","null","key","null","null","16.67177966101711","912","513","1","1","0","0","1","","",""
"","psychophysics","192","474065","0.0-2.0-0.63","afa","[""l""]","","","","","","4815","key","m","m","16.67200909090902","912","513","2","1","0","1","0","true","",""
"","psychophysics","193","475074","0.0-2.0-1.63","afa","[""l""]","","","","","","null","key","null","null","16.673583333332985","912","513","2","1","0","1","0","","",""
"","psychophysics","194","476084","0.0-2.0-2.63-0.63","afa","[""l""]","","","","","","null","key","null","null","16.671372881355513","912","513","2","1","0","1","0","","",""
"","psychophysics","195","479544","0.0-2.0-0.64","afa","[""l""]","","","","","","2757","key","z","z","16.67211594202883","912","513","2","0","0","0","1","false","",""
"","psychophysics","196","480552","0.0-2.0-1.64","afa","[""l""]","","","","","","null","key","null","null","16.671694915254317","912","513","2","0","0","0","1","","",""
"","psychophysics","197","481561","0.0-2.0-3.64-0.64","afa","[""l""]","","","","","","null","key","null","null","16.67298333333262","912","513","2","0","0","0","1","","",""
"","psychophysics","198","486801","0.0-2.0-0.65","afa","[""l""]","","","","","","4535","key","m","m","16.67182108626207","912","513","1","1","1","0","1","false","",""
"","psychophysics","199","487811","0.0-2.0-1.65","afa","[""l""]","","","","","","null","key","null","null","16.673033333334025","912","513","1","1","1","0","1","","",""
"","psychophysics","200","488820","0.0-2.0-3.65-0.65","afa","[""l""]","","","","","","null","key","null","null","16.6727627118639","912","513","1","1","1","0","1","","",""
"","psychophysics","201","492097","0.0-2.0-0.66","afa","[""l""]","","","","","","2573","key","m","m","16.672127551020523","912","513","1","0","0","1","0","false","",""
"","psychophysics","202","493104","0.0-2.0-1.66","afa","[""l""]","","","","","","null","key","null","null","16.6720677966102","912","513","1","0","0","1","0","","",""
"","psychophysics","203","494113","0.0-2.0-3.66-0.66","afa","[""l""]","","","","","","null","key","null","null","16.672600000000482","912","513","1","0","0","1","0","","",""
"","psychophysics","204","497617","0.0-2.0-0.67","afa","[""l""]","","","","","","2800","key","z","z","16.671952153110162","912","513","1","0","1","1","1","true","",""
"","psychophysics","205","498624","0.0-2.0-1.67","afa","[""l""]","","","","","","null","key","null","null","16.670779661016965","912","513","1","0","1","1","1","","",""
"","psychophysics","206","499635","0.0-2.0-2.67-0.67","afa","[""l""]","","","","","","null","key","null","null","16.67298333333262","912","513","1","0","1","1","1","","",""
"","psychophysics","207","501657","0.0-2.0-0.68","afa","[""l""]","","","","","","1318","key","z","z","16.6719749999999","912","513","1","0","1","1","1","true","",""
"","psychophysics","208","502667","0.0-2.0-1.68","afa","[""l""]","","","","","","null","key","null","null","16.672916666666666","912","513","1","0","1","1","1","","",""
"","psychophysics","209","503676","0.0-2.0-2.68-0.68","afa","[""l""]","","","","","","null","key","null","null","16.671864406779896","912","513","1","0","1","1","1","","",""
"","psychophysics","210","505636","0.0-2.0-0.69","afa","[""l""]","","","","","","1256","key","z","z","16.672136752136872","912","513","1","1","1","1","1","true","",""
"","psychophysics","211","506643","0.0-2.0-1.69","afa","[""l""]","","","","","","null","key","null","null","16.671372881355513","912","513","1","1","1","1","1","","",""
"","psychophysics","212","507652","0.0-2.0-2.69-0.69","afa","[""l""]","","","","","","null","key","null","null","16.6728666666672","912","513","1","1","1","1","1","","",""
"","psychophysics","213","511754","0.0-2.0-0.70","afa","[""l""]","","","","","","3397","key","z","z","16.67180408163267","912","513","1","0","0","1","0","true","",""
"","psychophysics","214","512761","0.0-2.0-1.70","afa","[""l""]","","","","","","null","key","null","null","16.671644067797235","912","513","1","0","0","1","0","","",""
"","psychophysics","215","513770","0.0-2.0-2.70-0.70","afa","[""l""]","","","","","","null","key","null","null","16.673850000000677","912","513","1","0","0","1","0","","",""
"","psychophysics","216","516618","0.0-2.0-0.71","afa","[""l""]","","","","","","2143","key","m","m","16.671609467455838","912","513","2","1","0","1","1","true","",""
"","psychophysics","217","517625","0.0-2.0-1.71","afa","[""l""]","","","","","","null","key","null","null","16.673316666666263","912","513","2","1","0","1","1","","",""
"","psychophysics","218","518635","0.0-2.0-2.71-0.71","afa","[""l""]","","","","","","null","key","null","null","16.67296610169519","912","513","2","1","0","1","1","","",""
"","psychophysics","219","520913","0.0-2.0-0.72","afa","[""l""]","","","","","","1574","key","z","z","16.671830882352985","912","513","2","1","0","0","0","false","",""
"","psychophysics","220","521923","0.0-2.0-1.72","afa","[""l""]","","","","","","null","key","null","null","16.67288333333272","912","513","2","1","0","0","0","","",""
"","psychophysics","221","522931","0.0-2.0-3.72-0.72","afa","[""l""]","","","","","","null","key","null","null","16.671694915254317","912","513","2","1","0","0","0","","",""
"","psychophysics","222","526713","0.0-2.0-0.73","afa","[""l""]","","","","","","3078","key","m","m","16.672079646017504","912","513","2","0","1","0","1","true","",""
"","psychophysics","223","527721","0.0-2.0-1.73","afa","[""l""]","","","","","","null","key","null","null","16.67289830508476","912","513","2","0","1","0","1","","",""
"","psychophysics","224","528731","0.0-2.0-2.73-0.73","afa","[""l""]","","","","","","null","key","null","null","16.671733333333396","912","513","2","0","1","0","1","","",""
"","psychophysics","225","532427","0.0-2.0-0.74","afa","[""l""]","","","","","","2991","key","z","z","16.672122171945656","912","513","1","0","1","1","1","true","",""
"","psychophysics","226","533434","0.0-2.0-1.74","afa","[""l""]","","","","","","null","key","null","null","16.671694915254317","912","513","1","0","1","1","1","","",""
"","psychophysics","227","534443","0.0-2.0-2.74-0.74","afa","[""l""]","","","","","","null","key","null","null","16.67278333333476","912","513","1","0","1","1","1","","",""
"","psychophysics","228","541513","0.0-2.0-0.75","afa","[""l""]","","","","","","6367","key","m","m","16.671832151300368","912","513","2","0","1","0","1","true","",""
"","psychophysics","229","542520","0.0-2.0-1.75","afa","[""l""]","","","","","","null","key","null","null","16.671745762712387","912","513","2","0","1","0","1","","",""
"","psychophysics","230","543530","0.0-2.0-2.75-0.75","afa","[""l""]","","","","","","null","key","null","null","16.67288333333369","912","513","2","0","1","0","1","","",""
"","psychophysics","231","545641","0.0-2.0-0.76","afa","[""l""]","","","","","","1406","key","z","z","16.67191200000048","912","513","2","0","0","0","0","false","",""
"","psychophysics","232","546649","0.0-2.0-1.76","afa","[""l""]","","","","","","null","key","null","null","16.672833333333255","912","513","2","0","0","0","0","","",""
"","psychophysics","233","547658","0.0-2.0-3.76-0.76","afa","[""l""]","","","","","","null","key","null","null","16.672016949154106","912","513","2","0","0","0","0","","",""
"","psychophysics","234","550121","0.0-2.0-0.77","afa","[""l""]","","","","","","1756","key","z","z","16.671972789115838","912","513","1","0","1","1","1","true","",""
"","psychophysics","235","551132","0.0-2.0-1.77","afa","[""l""]","","","","","","null","key","null","null","16.67286666666623","912","513","1","0","1","1","1","","",""
"","psychophysics","236","552141","0.0-2.0-2.77-0.77","afa","[""l""]","","","","","","null","key","null","null","16.671694915254317","912","513","1","0","1","1","1","","",""
"","psychophysics","237","555777","0.0-2.0-0.78","afa","[""l""]","","","","","","2932","key","z","z","16.672156682027683","912","513","2","0","1","1","0","false","",""
"","psychophysics","238","556786","0.0-2.0-1.78","afa","[""l""]","","","","","","null","key","null","null","16.67278333333282","912","513","2","0","1","1","0","","",""
"","psychophysics","239","557795","0.0-2.0-3.78-0.78","afa","[""l""]","","","","","","null","key","null","null","16.671661016949596","912","513","2","0","1","1","0","","",""
"","psychophysics","240","560241","0.0-2.0-0.79","afa","[""l""]","","","","","","1740","key","z","z","16.672136986301254","912","513","1","0","0","1","1","true","",""
"","psychophysics","241","561251","0.0-2.0-1.79","afa","[""l""]","","","","","","null","key","null","null","16.67306666666603","912","513","1","0","0","1","1","","",""
"","psychophysics","242","562261","0.0-2.0-2.79-0.79","afa","[""l""]","","","","","","null","key","null","null","16.672135593219643","912","513","1","0","0","1","1","","",""
"","psychophysics","243","566404","0.0-2.0-0.80","afa","[""l""]","","","","","","3435","key","m","m","16.67202822580622","912","513","2","1","1","1","1","true","",""
"","psychophysics","244","567413","0.0-2.0-1.80","afa","[""l""]","","","","","","null","key","null","null","16.671711864407662","912","513","2","1","1","1","1","","",""
"","psychophysics","245","568422","0.0-2.0-2.80-0.80","afa","[""l""]","","","","","","null","key","null","null","16.67298333333456","912","513","2","1","1","1","1","","",""
"","psychophysics","246","570625","0.0-2.0-0.81","afa","[""l""]","","","","","","1499","key","z","z","16.67189312977041","912","513","1","1","0","1","1","true","",""
"","psychophysics","247","571632","0.0-2.0-1.81","afa","[""l""]","","","","","","null","key","null","null","16.67289830508476","912","513","1","1","0","1","1","","",""
"","psychophysics","248","572641","0.0-2.0-2.81-0.81","afa","[""l""]","","","","","","null","key","null","null","16.673133333333922","912","513","1","1","0","1","1","","",""
"","psychophysics","249","575290","0.0-2.0-0.82","afa","[""l""]","","","","","","1944","key","z","z","16.672037974683732","912","513","1","1","0","1","0","true","",""
"","psychophysics","250","576297","0.0-2.0-1.82","afa","[""l""]","","","","","","null","key","null","null","16.67203389830548","912","513","1","1","0","1","0","","",""
"","psychophysics","251","577307","0.0-2.0-2.82-0.82","afa","[""l""]","","","","","","null","key","null","null","16.673300000000744","912","513","1","1","0","1","0","","",""
"","psychophysics","252","579481","0.0-2.0-0.83","afa","[""l""]","","","","","","1470","key","z","z","16.6718449612408","912","513","2","1","1","0","0","false","",""
"","psychophysics","253","580491","0.0-2.0-1.83","afa","[""l""]","","","","","","null","key","null","null","16.67294999999964","912","513","2","1","1","0","0","","",""
"","psychophysics","254","581501","0.0-2.0-3.83-0.83","afa","[""l""]","","","","","","null","key","null","null","16.672050847456855","912","513","2","1","1","0","0","","",""
"","psychophysics","255","583785","0.0-2.0-0.84","afa","[""l""]","","","","","","1576","key","m","m","16.67223529411764","912","513","2","1","1","1","1","true","",""
"","psychophysics","256","584793","0.0-2.0-1.84","afa","[""l""]","","","","","","null","key","null","null","16.67281666666774","912","513","2","1","1","1","1","","",""
"","psychophysics","257","585801","0.0-2.0-2.84-0.84","afa","[""l""]","","","","","","null","key","null","null","16.671864406779896","912","513","2","1","1","1","1","","",""
"","psychophysics","258","587873","0.0-2.0-0.85","afa","[""l""]","","","","","","1368","key","m","m","16.672382113820973","912","513","2","0","1","1","1","true","",""
"","psychophysics","259","588881","0.0-2.0-1.85","afa","[""l""]","","","","","","null","key","null","null","16.67294999999964","912","513","2","0","1","1","1","","",""
"","psychophysics","260","589894","0.0-2.0-2.85-0.85","afa","[""l""]","","","","","","null","key","null","null","16.672833333333255","912","513","2","0","1","1","1","","",""
"","psychophysics","261","592179","0.0-2.0-0.86","afa","[""l""]","","","","","","1581","key","z","z","16.671860294117806","912","513","1","1","0","1","1","true","",""
"","psychophysics","262","593186","0.0-2.0-1.86","afa","[""l""]","","","","","","null","key","null","null","16.67198305084741","912","513","1","1","0","1","1","","",""
"","psychophysics","263","594195","0.0-2.0-2.86-0.86","afa","[""l""]","","","","","","null","key","null","null","16.672400000000682","912","513","1","1","0","1","1","","",""
"","psychophysics","264","598714","0.0-2.0-0.87","afa","[""l""]","","","","","","3814","key","z","z","16.67179259259245","912","513","1","0","0","1","0","true","",""
"","psychophysics","265","599722","0.0-2.0-1.87","afa","[""l""]","","","","","","null","key","null","null","16.671745762712387","912","513","1","0","0","1","0","","",""
"","psychophysics","266","600732","0.0-2.0-2.87-0.87","afa","[""l""]","","","","","","null","key","null","null","16.67286666666623","912","513","1","0","0","1","0","","",""
"","psychophysics","267","602849","0.0-2.0-0.88","afa","[""l""]","","","","","","1412","key","z","z","16.67202380952418","912","513","1","1","1","1","1","true","",""
"","psychophysics","268","603856","0.0-2.0-1.88","afa","[""l""]","","","","","","null","key","null","null","16.6720677966102","912","513","1","1","1","1","1","","",""
"","psychophysics","269","604874","0.0-2.0-2.88-0.88","afa","[""l""]","","","","","","null","key","null","null","16.672449999999177","912","513","1","1","1","1","1","","",""
"","psychophysics","270","608153","0.0-2.0-0.89","afa","[""l""]","","","","","","2575","key","z","z","16.672204081632543","912","513","1","1","0","1","0","true","",""
"","psychophysics","271","609161","0.0-2.0-1.89","afa","[""l""]","","","","","","null","key","null","null","16.67177966101711","912","513","1","1","0","1","0","","",""
"","psychophysics","272","610171","0.0-2.0-2.89-0.89","afa","[""l""]","","","","","","null","key","null","null","16.6729666666671","912","513","1","1","0","1","0","","",""
"","psychophysics","273","612969","0.0-2.0-0.90","afa","[""l""]","","","","","","2095","key","m","m","16.671862275449108","912","513","1","1","0","0","1","false","",""
"","psychophysics","274","613977","0.0-2.0-1.90","afa","[""l""]","","","","","","null","key","null","null","16.672305084745226","912","513","1","1","0","0","1","","",""
"","psychophysics","275","614987","0.0-2.0-3.90-0.90","afa","[""l""]","","","","","","null","key","null","null","16.672499999999612","912","513","1","1","0","0","1","","",""
"","psychophysics","276","617120","0.0-2.0-0.91","afa","[""l""]","","","","","","1429","key","m","m","16.671724409447968","912","513","2","1","1","1","1","true","",""
"","psychophysics","277","618128","0.0-2.0-1.91","afa","[""l""]","","","","","","null","key","null","null","16.671610169491526","912","513","2","1","1","1","1","","",""
"","psychophysics","278","619138","0.0-2.0-2.91-0.91","afa","[""l""]","","","","","","null","key","null","null","16.672850000000714","912","513","2","1","1","1","1","","",""
"","psychophysics","279","623296","0.0-2.0-0.92","afa","[""l""]","","","","","","3456","key","z","z","16.671838709677573","912","513","1","1","0","1","0","true","",""
"","psychophysics","280","624304","0.0-2.0-1.92","afa","[""l""]","","","","","","null","key","null","null","16.672749999999844","912","513","1","1","0","1","0","","",""
"","psychophysics","281","625313","0.0-2.0-2.92-0.92","afa","[""l""]","","","","","","null","key","null","null","16.672830508475318","912","513","1","1","0","1","0","","",""
"","psychophysics","282","629352","0.0-2.0-0.93","afa","[""l""]","","","","","","3335","key","z","z","16.672078838174354","912","513","2","0","1","1","0","false","",""
"","psychophysics","283","630360","0.0-2.0-1.93","afa","[""l""]","","","","","","null","key","null","null","16.672566666665563","912","513","2","0","1","1","0","","",""
"","psychophysics","284","631369","0.0-2.0-3.93-0.93","afa","[""l""]","","","","","","null","key","null","null","16.672830508475318","912","513","2","0","1","1","0","","",""
"","psychophysics","285","635144","0.0-2.0-0.94","afa","[""l""]","","","","","","3071","key","m","m","16.671862831857958","912","513","2","1","0","1","1","true","",""
"","psychophysics","286","636152","0.0-2.0-1.94","afa","[""l""]","","","","","","null","key","null","null","16.672440677966087","912","513","2","1","0","1","1","","",""
"","psychophysics","287","637162","0.0-2.0-2.94-0.94","afa","[""l""]","","","","","","null","key","null","null","16.672199999998945","912","513","2","1","0","1","1","","",""
"","psychophysics","288","639472","0.0-2.0-0.95","afa","[""l""]","","","","","","1606","key","m","m","16.672343065692825","912","513","2","0","0","1","1","true","",""
"","psychophysics","289","640481","0.0-2.0-1.95","afa","[""l""]","","","","","","null","key","null","null","16.672833333333255","912","513","2","0","0","1","1","","",""
"","psychophysics","290","641501","0.0-2.0-2.95-0.95","afa","[""l""]","","","","","","null","key","null","null","16.673116666666466","912","513","2","0","0","1","1","","",""
"","psychophysics","291","644360","0.0-2.0-0.96","afa","[""l""]","","","","","","2155","key","m","m","16.67215789473692","912","513","2","0","1","0","1","true","",""
"","psychophysics","292","645368","0.0-2.0-1.96","afa","[""l""]","","","","","","null","key","null","null","16.67328813559202","912","513","2","0","1","0","1","","",""
"","psychophysics","293","646378","0.0-2.0-2.96-0.96","afa","[""l""]","","","","","","null","key","null","null","16.67304999999857","912","513","2","0","1","0","1","","",""
"","psychophysics","294","648032","0.0-2.0-0.97","afa","[""l""]","","","","","","949","key","m","m","16.672091836734598","912","513","2","1","1","1","1","true","",""
"","psychophysics","295","649040","0.0-2.0-1.97","afa","[""l""]","","","","","","null","key","null","null","16.671932203389343","912","513","2","1","1","1","1","","",""
"","psychophysics","296","650050","0.0-2.0-2.97-0.97","afa","[""l""]","","","","","","null","key","null","null","16.67294999999964","912","513","2","1","1","1","1","","",""
"","psychophysics","297","651947","0.0-2.0-0.98","afa","[""l""]","","","","","","1192","key","m","m","16.672486725664054","912","513","2","1","0","1","1","true","",""
"","psychophysics","298","652954","0.0-2.0-1.98","afa","[""l""]","","","","","","null","key","null","null","16.67216949152634","912","513","2","1","0","1","1","","",""
"","psychophysics","299","653963","0.0-2.0-2.98-0.98","afa","[""l""]","","","","","","null","key","null","null","16.672733333334328","912","513","2","1","0","1","1","","",""
"","psychophysics","300","655808","0.0-2.0-0.99","afa","[""l""]","","","","","","1141","key","m","m","16.671761467889457","912","513","2","0","1","1","1","true","",""
"","psychophysics","301","656816","0.0-2.0-1.99","afa","[""l""]","","","","","","null","key","null","null","16.67280000000028","912","513","2","0","1","1","1","","",""
"","psychophysics","302","657825","0.0-2.0-2.99-0.99","afa","[""l""]","","","","","","null","key","null","null","16.671457627119292","912","513","2","0","1","1","1","","",""
"","html-keyboard-response","303","664041","0.0-2.0-4.99-0.99","afa","[""l""]","","","","","","6210","","","g","","","","","","","","","","<p>You have finished block 1 of 4.<p>You correctly predicted 76% of the races.<p>On the next screen, you will be given a 30 second break. Press the <b>g</b> key to start your break.",""
"","html-keyboard-response","304","665043","0.0-2.0-4.99-1.99-0.99","afa","[""l""]","","","","","","null","","","null","","","","","","","","","","<p>The experiment will resume in 30 seconds. ",""
"","html-keyboard-response","305","666047","0.0-2.0-4.99-1.99-1.99","afa","[""l""]","","","","","","null","","","null","","","","","","","","","","<p>The experiment will resume in 29 seconds. ",""
"","html-keyboard-response","306","667050","0.0-2.0-4.99-1.99-2.99","afa","[""l""]","","","","","","null","","","null","","","","","","","","","","<p>The experiment will resume in 28 seconds. ",""
"","html-keyboard-response","307","668053","0.0-2.0-4.99-1.99-3.99","afa","[""l""]","","","","","","null","","","null","","","","","","","","","","<p>The experiment will resume in 27 seconds. ",""
"","html-keyboard-response","308","669055","0.0-2.0-4.99-1.99-4.99","afa","[""l""]","","","","","","null","","","null","","","","","","","","","","<p>The experiment will resume in 26 seconds. ",""
"","html-keyboard-response","309","670057","0.0-2.0-4.99-1.99-5.99","afa","[""l""]","","","","","","null","","","null","","","","","","","","","","<p>The experiment will resume in 25 seconds. ",""
"","html-keyboard-response","310","671069","0.0-2.0-4.99-1.99-6.99","afa","[""l""]","","","","","","null","","","null","","","","","","","","","","<p>The experiment will resume in 24 seconds. ",""
"","html-keyboard-response","311","672071","0.0-2.0-4.99-1.99-7.99","afa","[""l""]","","","","","","null","","","null","","","","","","","","","","<p>The experiment will resume in 23 seconds. ",""
"","html-keyboard-response","312","673073","0.0-2.0-4.99-1.99-8.99","afa","[""l""]","","","","","","null","","","null","","","","","","","","","","<p>The experiment will resume in 22 seconds. ",""
"","html-keyboard-response","313","674075","0.0-2.0-4.99-1.99-9.99","afa","[""l""]","","","","","","null","","","null","","","","","","","","","","<p>The experiment will resume in 21 seconds. ",""
"","html-keyboard-response","314","675077","0.0-2.0-4.99-1.99-10.99","afa","[""l""]","","","","","","null","","","null","","","","","","","","","","<p>The experiment will resume in 20 seconds. ",""
"","html-keyboard-response","315","676080","0.0-2.0-4.99-1.99-11.99","afa","[""l""]","","","","","","null","","","null","","","","","","","","","","<p>The experiment will resume in 19 seconds. ",""
"","html-keyboard-response","316","677082","0.0-2.0-4.99-1.99-12.99","afa","[""l""]","","","","","","null","","","null","","","","","","","","","","<p>The experiment will resume in 18 seconds. ",""
"","html-keyboard-response","317","678084","0.0-2.0-4.99-1.99-13.99","afa","[""l""]","","","","","","null","","","null","","","","","","","","","","<p>The experiment will resume in 17 seconds. ",""
"","html-keyboard-response","318","679086","0.0-2.0-4.99-1.99-14.99","afa","[""l""]","","","","","","null","","","null","","","","","","","","","","<p>The experiment will resume in 16 seconds. ",""
"","html-keyboard-response","319","680087","0.0-2.0-4.99-1.99-15.99","afa","[""l""]","","","","","","null","","","null","","","","","","","","","","<p>The experiment will resume in 15 seconds. ",""
"","html-keyboard-response","320","681090","0.0-2.0-4.99-1.99-16.99","afa","[""l""]","","","","","","null","","","null","","","","","","","","","","<p>The experiment will resume in 14 seconds. ",""
"","html-keyboard-response","321","682092","0.0-2.0-4.99-1.99-17.99","afa","[""l""]","","","","","","null","","","null","","","","","","","","","","<p>The experiment will resume in 13 seconds. ",""
"","html-keyboard-response","322","683093","0.0-2.0-4.99-1.99-18.99","afa","[""l""]","","","","","","null","","","null","","","","","","","","","","<p>The experiment will resume in 12 seconds. ",""
"","html-keyboard-response","323","684096","0.0-2.0-4.99-1.99-19.99","afa","[""l""]","","","","","","null","","","null","","","","","","","","","","<p>The experiment will resume in 11 seconds. ",""
"","html-keyboard-response","324","685098","0.0-2.0-4.99-1.99-20.99","afa","[""l""]","","","","","","null","","","null","","","","","","","","","","<p>The experiment will resume in 10 seconds. ",""
"","html-keyboard-response","325","686101","0.0-2.0-4.99-1.99-21.99","afa","[""l""]","","","","","","null","","","null","","","","","","","","","","<p>The experiment will resume in 9 seconds. ",""
"","html-keyboard-response","326","687103","0.0-2.0-4.99-1.99-22.99","afa","[""l""]","","","","","","null","","","null","","","","","","","","","","<p>The experiment will resume in 8 seconds. ",""
"","html-keyboard-response","327","688104","0.0-2.0-4.99-1.99-23.99","afa","[""l""]","","","","","","null","","","null","","","","","","","","","","<p>The experiment will resume in 7 seconds. ",""
"","html-keyboard-response","328","689107","0.0-2.0-4.99-1.99-24.99","afa","[""l""]","","","","","","null","","","null","","","","","","","","","","<p>The experiment will resume in 6 seconds. ",""
"","html-keyboard-response","329","690108","0.0-2.0-4.99-1.99-25.99","afa","[""l""]","","","","","","null","","","null","","","","","","","","","","<p>The experiment will resume in 5 seconds. ",""
"","html-keyboard-response","330","691110","0.0-2.0-4.99-1.99-26.99","afa","[""l""]","","","","","","null","","","null","","","","","","","","","","<p>The experiment will resume in 4 seconds. ",""
"","html-keyboard-response","331","692111","0.0-2.0-4.99-1.99-27.99","afa","[""l""]","","","","","","null","","","null","","","","","","","","","","<p>The experiment will resume in 3 seconds. ",""
"","html-keyboard-response","332","693113","0.0-2.0-4.99-1.99-28.99","afa","[""l""]","","","","","","null","","","null","","","","","","","","","","<p>The experiment will resume in 2 seconds. ",""
"","html-keyboard-response","333","694114","0.0-2.0-4.99-1.99-29.99","afa","[""l""]","","","","","","null","","","null","","","","","","","","","","<p>The experiment will resume in 1 seconds. ",""
"","psychophysics","334","698795","0.0-2.0-0.100","afa","[""l""]","","","","","","3977","key","m","m","16.67279715302485","912","513","2","0","0","1","1","true","",""
"","psychophysics","335","699803","0.0-2.0-1.100","afa","[""l""]","","","","","","null","key","null","null","16.671610169491526","912","513","2","0","0","1","1","","",""
"","psychophysics","336","700812","0.0-2.0-2.100-0.100","afa","[""l""]","","","","","","null","key","null","null","16.672666666666434","912","513","2","0","0","1","1","","",""
"","psychophysics","337","702496","0.0-2.0-0.101","afa","[""l""]","","","","","","980","key","m","m","16.672310000000287","912","513","2","0","0","1","1","true","",""
"","psychophysics","338","703504","0.0-2.0-1.101","afa","[""l""]","","","","","","null","key","null","null","16.67240677965939","912","513","2","0","0","1","1","","",""
"","psychophysics","339","704514","0.0-2.0-2.101-0.101","afa","[""l""]","","","","","","null","key","null","null","16.672916666666666","912","513","2","0","0","1","1","","",""
"","psychophysics","340","706120","0.0-2.0-0.102","afa","[""l""]","","","","","","903","key","z","z","16.672157894736646","912","513","1","0","0","1","1","true","",""
"","psychophysics","341","707130","0.0-2.0-1.102","afa","[""l""]","","","","","","null","key","null","null","16.67269999999941","912","513","1","0","0","1","1","","",""
"","psychophysics","342","708139","0.0-2.0-2.102-0.102","afa","[""l""]","","","","","","null","key","null","null","16.67338983050816","912","513","1","0","0","1","1","","",""
"","psychophysics","343","710549","0.0-2.0-0.103","afa","[""l""]","","","","","","1706","key","z","z","16.671715277778276","912","513","1","0","0","0","1","true","",""
"","psychophysics","344","711557","0.0-2.0-1.103","afa","[""l""]","","","","","","null","key","null","null","16.67128813559371","912","513","1","0","0","0","1","","",""
"","psychophysics","345","712568","0.0-2.0-2.103-0.103","afa","[""l""]","","","","","","null","key","null","null","16.672499999999612","912","513","1","0","0","0","1","","",""
"","psychophysics","346","715417","0.0-2.0-0.104","afa","[""l""]","","","","","","2146","key","z","z","16.671800000000033","912","513","1","0","0","1","0","true","",""
"","psychophysics","347","716424","0.0-2.0-1.104","afa","[""l""]","","","","","","null","key","null","null","16.6718135593238","912","513","1","0","0","1","0","","",""
"","psychophysics","348","717435","0.0-2.0-2.104-0.104","afa","[""l""]","","","","","","null","key","null","null","16.672933333332185","912","513","1","0","0","1","0","","",""
"","psychophysics","349","719240","0.0-2.0-0.105","afa","[""l""]","","","","","","1102","key","z","z","16.671943925234064","912","513","1","1","1","1","1","true","",""
"","psychophysics","350","720250","0.0-2.0-1.105","afa","[""l""]","","","","","","null","key","null","null","16.672600000000482","912","513","1","1","1","1","1","","",""
"","psychophysics","351","721259","0.0-2.0-2.105-0.105","afa","[""l""]","","","","","","null","key","null","null","16.67361016949181","912","513","1","1","1","1","1","","",""
"","psychophysics","352","723036","0.0-2.0-0.106","afa","[""l""]","","","","","","1073","key","z","z","16.67218867924618","912","513","1","0","0","1","1","true","",""
"","psychophysics","353","724043","0.0-2.0-1.106","afa","[""l""]","","","","","","null","key","null","null","16.67167796610294","912","513","1","0","0","1","1","","",""
"","psychophysics","354","725053","0.0-2.0-2.106-0.106","afa","[""l""]","","","","","","null","key","null","null","16.673133333331982","912","513","1","0","0","1","1","","",""
"","psychophysics","355","728992","0.0-2.0-0.107","afa","[""l""]","","","","","","3236","key","z","z","16.671923404255327","912","513","2","1","1","0","1","false","",""
"","psychophysics","356","730000","0.0-2.0-1.107","afa","[""l""]","","","","","","null","key","null","null","16.672084745761577","912","513","2","1","1","0","1","","",""
"","psychophysics","357","731011","0.0-2.0-3.107-0.107","afa","[""l""]","","","","","","null","key","null","null","16.67141666666721","912","513","2","1","1","0","1","","",""
"","psychophysics","358","733193","0.0-2.0-0.108","afa","[""l""]","","","","","","1479","key","z","z","16.672230769230875","912","513","2","0","0","0","1","false","",""
"","psychophysics","359","734200","0.0-2.0-1.108","afa","[""l""]","","","","","","null","key","null","null","16.671932203389343","912","513","2","0","0","0","1","","",""
"","psychophysics","360","735222","0.0-2.0-3.108-0.108","afa","[""l""]","","","","","","null","key","null","null","16.67231147541077","912","513","2","0","0","0","1","","",""
"","psychophysics","361","738524","0.0-2.0-0.109","afa","[""l""]","","","","","","2598","key","z","z","16.67183756345155","912","513","1","1","1","1","0","true","",""
"","psychophysics","362","739531","0.0-2.0-1.109","afa","[""l""]","","","","","","null","key","null","null","16.672999999998925","912","513","1","1","1","1","0","","",""
"","psychophysics","363","740542","0.0-2.0-2.109-0.109","afa","[""l""]","","","","","","null","key","null","null","16.672383333333226","912","513","1","1","1","1","0","","",""
"","psychophysics","364","742944","0.0-2.0-0.110","afa","[""l""]","","","","","","1699","key","z","z","16.672090909091292","912","513","1","1","1","1","1","true","",""
"","psychophysics","365","743952","0.0-2.0-1.110","afa","[""l""]","","","","","","null","key","null","null","16.671694915254317","912","513","1","1","1","1","1","","",""
"","psychophysics","366","744962","0.0-2.0-2.110-0.110","afa","[""l""]","","","","","","null","key","null","null","16.671816666666807","912","513","1","1","1","1","1","","",""
"","psychophysics","367","746827","0.0-2.0-0.111","afa","[""l""]","","","","","","1161","key","m","m","16.672270270270037","912","513","2","0","0","1","1","true","",""
"","psychophysics","368","747834","0.0-2.0-1.111","afa","[""l""]","","","","","","null","key","null","null","16.671830508475175","912","513","2","0","0","1","1","","",""
"","psychophysics","369","748844","0.0-2.0-2.111-0.111","afa","[""l""]","","","","","","null","key","null","null","16.673333333333723","912","513","2","0","0","1","1","","",""
"","psychophysics","370","751184","0.0-2.0-0.112","afa","[""l""]","","","","","","1637","key","m","m","16.672230215827774","912","513","2","0","0","1","1","true","",""
"","psychophysics","371","752194","0.0-2.0-1.112","afa","[""l""]","","","","","","null","key","null","null","16.672266666666836","912","513","2","0","0","1","1","","",""
"","psychophysics","372","753203","0.0-2.0-2.112-0.112","afa","[""l""]","","","","","","null","key","null","null","16.67167796610097","912","513","2","0","0","1","1","","",""
"","psychophysics","373","755232","0.0-2.0-0.113","afa","[""l""]","","","","","","1325","key","m","m","16.67245454545429","912","513","2","1","1","1","1","true","",""
"","psychophysics","374","756240","0.0-2.0-1.113","afa","[""l""]","","","","","","null","key","null","null","16.67220338983106","912","513","2","1","1","1","1","","",""
"","psychophysics","375","757250","0.0-2.0-2.113-0.113","afa","[""l""]","","","","","","null","key","null","null","16.672749999999844","912","513","2","1","1","1","1","","",""
"","psychophysics","376","760964","0.0-2.0-0.114","afa","[""l""]","","","","","","3010","key","m","m","16.671869369369496","912","513","2","1","1","1","0","true","",""
"","psychophysics","377","761972","0.0-2.0-1.114","afa","[""l""]","","","","","","null","key","null","null","16.67167796610294","912","513","2","1","1","1","0","","",""
"","psychophysics","378","762984","0.0-2.0-2.114-0.114","afa","[""l""]","","","","","","null","key","null","null","16.672683333333893","912","513","2","1","1","1","0","","",""
"","psychophysics","379","765633","0.0-2.0-0.115","afa","[""l""]","","","","","","1944","key","z","z","16.67198101265792","912","513","1","1","0","1","1","true","",""
"","psychophysics","380","766640","0.0-2.0-1.115","afa","[""l""]","","","","","","null","key","null","null","16.672186440677713","912","513","1","1","0","1","1","","",""
"","psychophysics","381","767650","0.0-2.0-2.115-0.115","afa","[""l""]","","","","","","null","key","null","null","16.67269999999941","912","513","1","1","0","1","1","","",""
"","psychophysics","382","769592","0.0-2.0-0.116","afa","[""l""]","","","","","","1238","key","m","m","16.67233043478235","912","513","2","0","1","1","1","true","",""
"","psychophysics","383","770601","0.0-2.0-1.116","afa","[""l""]","","","","","","null","key","null","null","16.673033333333056","912","513","2","0","1","1","1","","",""
"","psychophysics","384","771610","0.0-2.0-2.116-0.116","afa","[""l""]","","","","","","null","key","null","null","16.673067796610344","912","513","2","0","1","1","1","","",""
"","psychophysics","385","774905","0.0-2.0-0.117","afa","[""l""]","","","","","","2587","key","z","z","16.67196954314734","912","513","2","0","0","0","1","false","",""
"","psychophysics","386","775912","0.0-2.0-1.117","afa","[""l""]","","","","","","null","key","null","null","16.671830508475175","912","513","2","0","0","0","1","","",""
"","psychophysics","387","776922","0.0-2.0-3.117-0.117","afa","[""l""]","","","","","","null","key","null","null","16.673216666667333","912","513","2","0","0","0","1","","",""
"","psychophysics","388","778808","0.0-2.0-0.118","afa","[""l""]","","","","","","1183","key","m","m","16.672285714285472","912","513","2","1","0","1","1","true","",""
"","psychophysics","389","779815","0.0-2.0-1.118","afa","[""l""]","","","","","","null","key","null","null","16.67264406779639","912","513","2","1","0","1","1","","",""
"","psychophysics","390","780825","0.0-2.0-2.118-0.118","afa","[""l""]","","","","","","null","key","null","null","16.6724166666662","912","513","2","1","0","1","1","","",""
"","psychophysics","391","782955","0.0-2.0-0.119","afa","[""l""]","","","","","","1426","key","m","m","16.672574803149733","912","513","2","0","1","0","1","true","",""
"","psychophysics","392","783962","0.0-2.0-1.119","afa","[""l""]","","","","","","null","key","null","null","16.6716271186429","912","513","2","0","1","0","1","","",""
"","psychophysics","393","784973","0.0-2.0-2.119-0.119","afa","[""l""]","","","","","","null","key","null","null","16.67233333333473","912","513","2","0","1","0","1","","",""
"","psychophysics","394","786923","0.0-2.0-0.120","afa","[""l""]","","","","","","1246","key","z","z","16.6724482758617","912","513","2","1","1","0","0","false","",""
"","psychophysics","395","787930","0.0-2.0-1.120","afa","[""l""]","","","","","","null","key","null","null","16.671932203389343","912","513","2","1","1","0","0","","",""
"","psychophysics","396","788940","0.0-2.0-3.120-0.120","afa","[""l""]","","","","","","null","key","null","null","16.672216666666404","912","513","2","1","1","0","0","","",""
"","psychophysics","397","793458","0.0-2.0-0.121","afa","[""l""]","","","","","","3813","key","z","z","16.671833333333403","912","513","2","1","0","0","0","false","",""
"","psychophysics","398","794465","0.0-2.0-1.121","afa","[""l""]","","","","","","null","key","null","null","16.672271186442476","912","513","2","1","0","0","0","","",""
"","psychophysics","399","795475","0.0-2.0-3.121-0.121","afa","[""l""]","","","","","","null","key","null","null","16.67306666666603","912","513","2","1","0","0","0","","",""
"","psychophysics","400","797292","0.0-2.0-0.122","afa","[""l""]","","","","","","1113","key","z","z","16.67175925925861","912","513","1","1","1","1","1","true","",""
"","psychophysics","401","798300","0.0-2.0-1.122","afa","[""l""]","","","","","","null","key","null","null","16.672711864405834","912","513","1","1","1","1","1","","",""
"","psychophysics","402","799309","0.0-2.0-2.122-0.122","afa","[""l""]","","","","","","null","key","null","null","16.672600000000482","912","513","1","1","1","1","1","","",""
"","psychophysics","403","801673","0.0-2.0-0.123","afa","[""l""]","","","","","","1659","key","z","z","16.671971428571435","912","513","2","1","0","0","1","false","",""
"","psychophysics","404","802680","0.0-2.0-1.123","afa","[""l""]","","","","","","null","key","null","null","16.672100000000015","912","513","2","1","0","0","1","","",""
"","psychophysics","405","803689","0.0-2.0-3.123-0.123","afa","[""l""]","","","","","","null","key","null","null","16.672677966101112","912","513","2","1","0","0","1","","",""
"","psychophysics","406","806152","0.0-2.0-0.124","afa","[""l""]","","","","","","1758","key","m","m","16.67228571428572","912","513","2","0","1","0","1","true","",""
"","psychophysics","407","807161","0.0-2.0-1.124","afa","[""l""]","","","","","","null","key","null","null","16.673283333333288","912","513","2","0","1","0","1","","",""
"","psychophysics","408","808170","0.0-2.0-2.124-0.124","afa","[""l""]","","","","","","null","key","null","null","16.67177966101711","912","513","2","0","1","0","1","","",""
"","psychophysics","409","810432","0.0-2.0-0.125","afa","[""l""]","","","","","","1558","key","z","z","16.672266666667053","912","513","1","1","1","1","1","true","",""
"","psychophysics","410","811440","0.0-2.0-1.125","afa","[""l""]","","","","","","null","key","null","null","16.67220338983106","912","513","1","1","1","1","1","","",""
"","psychophysics","411","812449","0.0-2.0-2.125-0.125","afa","[""l""]","","","","","","null","key","null","null","16.672666666666434","912","513","1","1","1","1","1","","",""
"","psychophysics","412","814331","0.0-2.0-0.126","afa","[""l""]","","","","","","1177","key","m","m","16.672348214286362","912","513","2","1","1","1","1","true","",""
"","psychophysics","413","815338","0.0-2.0-1.126","afa","[""l""]","","","","","","null","key","null","null","16.672610169491666","912","513","2","1","1","1","1","","",""
"","psychophysics","414","816348","0.0-2.0-2.126-0.126","afa","[""l""]","","","","","","null","key","null","null","16.67271666666687","912","513","2","1","1","1","1","","",""
"","psychophysics","415","818504","0.0-2.0-0.127","afa","[""l""]","","","","","","1451","key","z","z","16.67253906249971","912","513","1","0","1","1","1","true","",""
"","psychophysics","416","819515","0.0-2.0-1.127","afa","[""l""]","","","","","","null","key","null","null","16.67278333333282","912","513","1","0","1","1","1","","",""
"","psychophysics","417","820523","0.0-2.0-2.127-0.127","afa","[""l""]","","","","","","null","key","null","null","16.67201694915213","912","513","1","0","1","1","1","","",""
"","psychophysics","418","823008","0.0-2.0-0.128","afa","[""l""]","","","","","","1781","key","m","m","16.672155405405746","912","513","2","0","1","1","1","true","",""
"","psychophysics","419","824016","0.0-2.0-1.128","afa","[""l""]","","","","","","null","key","null","null","16.67271666666687","912","513","2","0","1","1","1","","",""
"","psychophysics","420","825025","0.0-2.0-2.128-0.128","afa","[""l""]","","","","","","null","key","null","null","16.67208474576355","912","513","2","0","1","1","1","","",""
"","psychophysics","421","827481","0.0-2.0-0.129","afa","[""l""]","","","","","","1751","key","z","z","16.67217123287663","912","513","2","1","0","0","0","false","",""
"","psychophysics","422","828488","0.0-2.0-1.129","afa","[""l""]","","","","","","null","key","null","null","16.671716666665937","912","513","2","1","0","0","0","","",""
"","psychophysics","423","829497","0.0-2.0-3.129-0.129","afa","[""l""]","","","","","","null","key","null","null","16.671627118644874","912","513","2","1","0","0","0","","",""
"","psychophysics","424","832160","0.0-2.0-0.130","afa","[""l""]","","","","","","1958","key","m","m","16.671704402515584","912","513","2","1","1","0","1","true","",""
"","psychophysics","425","833169","0.0-2.0-1.130","afa","[""l""]","","","","","","null","key","null","null","16.672749999999844","912","513","2","1","1","0","1","","",""
"","psychophysics","426","834178","0.0-2.0-2.130-0.130","afa","[""l""]","","","","","","null","key","null","null","16.671830508475175","912","513","2","1","1","0","1","","",""
"","psychophysics","427","836960","0.0-2.0-0.131","afa","[""l""]","","","","","","2078","key","z","z","16.672289156626366","912","513","1","1","0","1","0","true","",""
"","psychophysics","428","837971","0.0-2.0-1.131","afa","[""l""]","","","","","","null","key","null","null","16.67271666666687","912","513","1","1","0","1","0","","",""
"","psychophysics","429","838979","0.0-2.0-2.131-0.131","afa","[""l""]","","","","","","null","key","null","null","16.672610169491666","912","513","1","1","0","1","0","","",""
"","psychophysics","430","841328","0.0-2.0-0.132","afa","[""l""]","","","","","","1645","key","m","m","16.67209285714281","912","513","2","1","1","1","1","true","",""
"","psychophysics","431","842339","0.0-2.0-1.132","afa","[""l""]","","","","","","null","key","null","null","16.67261666666794","912","513","2","1","1","1","1","","",""
"","psychophysics","432","843347","0.0-2.0-2.132-0.132","afa","[""l""]","","","","","","null","key","null","null","16.67184745762655","912","513","2","1","1","1","1","","",""
"","psychophysics","433","845624","0.0-2.0-0.133","afa","[""l""]","","","","","","1573","key","m","m","16.672492647059055","912","513","2","1","0","1","1","true","",""
"","psychophysics","434","846633","0.0-2.0-1.133","afa","[""l""]","","","","","","null","key","null","null","16.67137288135453","912","513","2","1","0","1","1","","",""
"","psychophysics","435","847643","0.0-2.0-2.133-0.133","afa","[""l""]","","","","","","null","key","null","null","16.672649999998974","912","513","2","1","0","1","1","","",""
"","psychophysics","436","850025","0.0-2.0-0.134","afa","[""l""]","","","","","","1679","key","z","z","16.671669014085175","912","513","1","0","1","1","1","true","",""
"","psychophysics","437","851032","0.0-2.0-1.134","afa","[""l""]","","","","","","null","key","null","null","16.671152542372848","912","513","1","0","1","1","1","","",""
"","psychophysics","438","852042","0.0-2.0-2.134-0.134","afa","[""l""]","","","","","","null","key","null","null","16.6729666666671","912","513","1","0","1","1","1","","",""
"","psychophysics","439","854960","0.0-2.0-0.135","afa","[""l""]","","","","","","2214","key","m","m","16.67165517241389","912","513","1","1","0","0","1","false","",""
"","psychophysics","440","855967","0.0-2.0-1.135","afa","[""l""]","","","","","","null","key","null","null","16.67255932203557","912","513","1","1","0","0","1","","",""
"","psychophysics","441","856977","0.0-2.0-3.135-0.135","afa","[""l""]","","","","","","null","key","null","null","16.673099999999007","912","513","1","1","0","0","1","","",""
"","psychophysics","442","859945","0.0-2.0-0.136","afa","[""l""]","","","","","","2264","key","z","z","16.67171751412413","912","513","1","1","0","1","1","true","",""
"","psychophysics","443","860952","0.0-2.0-1.136","afa","[""l""]","","","","","","null","key","null","null","16.671406779661222","912","513","1","1","0","1","1","","",""
"","psychophysics","444","861963","0.0-2.0-2.136-0.136","afa","[""l""]","","","","","","null","key","null","null","16.673000000000076","912","513","1","1","0","1","1","","",""
"","psychophysics","445","864529","0.0-2.0-0.137","afa","[""l""]","","","","","","1863","key","z","z","16.671928104574736","912","513","1","1","0","1","0","true","",""
"","psychophysics","446","865536","0.0-2.0-1.137","afa","[""l""]","","","","","","null","key","null","null","16.6720677966102","912","513","1","1","0","1","0","","",""
"","psychophysics","447","866546","0.0-2.0-2.137-0.137","afa","[""l""]","","","","","","null","key","null","null","16.676683333333738","912","513","1","1","0","1","0","","",""
"","psychophysics","448","870735","0.0-2.0-0.138","afa","[""l""]","","","","","","3486","key","z","z","16.67186800000025","912","513","1","0","0","1","0","true","",""
"","psychophysics","449","871743","0.0-2.0-1.138","afa","[""l""]","","","","","","null","key","null","null","16.672644067798362","912","513","1","0","0","1","0","","",""
"","psychophysics","450","872752","0.0-2.0-2.138-0.138","afa","[""l""]","","","","","","null","key","null","null","16.67159999999955","912","513","1","0","0","1","0","","",""
"","psychophysics","451","876424","0.0-2.0-0.139","afa","[""l""]","","","","","","2968","key","z","z","16.672054794520783","912","513","1","1","1","1","1","true","",""
"","psychophysics","452","877432","0.0-2.0-1.139","afa","[""l""]","","","","","","null","key","null","null","16.673233333334792","912","513","1","1","1","1","1","","",""
"","psychophysics","453","878442","0.0-2.0-2.139-0.139","afa","[""l""]","","","","","","null","key","null","null","16.67184745762655","912","513","1","1","1","1","1","","",""
"","psychophysics","454","880527","0.0-2.0-0.140","afa","[""l""]","","","","","","1383","key","z","z","16.67215322580699","912","513","2","1","0","0","0","false","",""
"","psychophysics","455","881536","0.0-2.0-1.140","afa","[""l""]","","","","","","null","key","null","null","16.67216666666791","912","513","2","1","0","0","0","","",""
"","psychophysics","456","882545","0.0-2.0-3.140-0.140","afa","[""l""]","","","","","","null","key","null","null","16.6706779661028","912","513","2","1","0","0","0","","",""
"","psychophysics","457","884585","0.0-2.0-0.141","afa","[""l""]","","","","","","1334","key","z","z","16.672344262294708","912","513","2","0","0","0","0","false","",""
"","psychophysics","458","885592","0.0-2.0-1.141","afa","[""l""]","","","","","","null","key","null","null","16.670830508475035","912","513","2","0","0","0","0","","",""
"","psychophysics","459","886602","0.0-2.0-3.141-0.141","afa","[""l""]","","","","","","null","key","null","null","16.672050000001523","912","513","2","0","0","0","0","","",""
"","psychophysics","460","889187","0.0-2.0-0.142","afa","[""l""]","","","","","","1882","key","m","m","16.67131168831158","912","513","1","1","0","0","1","false","",""
"","psychophysics","461","890194","0.0-2.0-1.142","afa","[""l""]","","","","","","null","key","null","null","16.672491525424157","912","513","1","1","0","0","1","","",""
"","psychophysics","462","891204","0.0-2.0-3.142-0.142","afa","[""l""]","","","","","","null","key","null","null","16.672666666666434","912","513","1","1","0","0","1","","",""
"","psychophysics","463","893000","0.0-2.0-0.143","afa","[""l""]","","","","","","1091","key","m","m","16.671943396226645","912","513","2","1","1","1","1","true","",""
"","psychophysics","464","894009","0.0-2.0-1.143","afa","[""l""]","","","","","","null","key","null","null","16.672733333334328","912","513","2","1","1","1","1","","",""
"","psychophysics","465","895021","0.0-2.0-2.143-0.143","afa","[""l""]","","","","","","null","key","null","null","16.673133333331982","912","513","2","1","1","1","1","","",""
"","psychophysics","466","896927","0.0-2.0-0.144","afa","[""l""]","","","","","","1203","key","z","z","16.67190265486664","912","513","1","1","1","1","1","true","",""
"","psychophysics","467","897935","0.0-2.0-1.144","afa","[""l""]","","","","","","null","key","null","null","16.67272881355918","912","513","1","1","1","1","1","","",""
"","psychophysics","468","898944","0.0-2.0-2.144-0.144","afa","[""l""]","","","","","","null","key","null","null","16.671916666667677","912","513","1","1","1","1","1","","",""
"","psychophysics","469","900823","0.0-2.0-0.145","afa","[""l""]","","","","","","1175","key","m","m","16.671955357142515","912","513","2","1","0","1","1","true","",""
"","psychophysics","470","901827","0.0-2.0-1.145","afa","[""l""]","","","","","","null","key","null","null","16.67215254237299","912","513","2","1","0","1","1","","",""
"","psychophysics","471","902836","0.0-2.0-2.145-0.145","afa","[""l""]","","","","","","null","key","null","null","16.67225423728913","912","513","2","1","0","1","1","","",""
"","psychophysics","472","905875","0.0-2.0-0.146","afa","[""l""]","","","","","","2334","key","m","m","16.672032967032635","912","513","2","0","0","1","1","true","",""
"","psychophysics","473","906883","0.0-2.0-1.146","afa","[""l""]","","","","","","null","key","null","null","16.67184745762655","912","513","2","0","0","1","1","","",""
"","psychophysics","474","907893","0.0-2.0-2.146-0.146","afa","[""l""]","","","","","","null","key","null","null","16.672833333333255","912","513","2","0","0","1","1","","",""
"","psychophysics","475","910010","0.0-2.0-0.147","afa","[""l""]","","","","","","1414","key","m","m","16.67215873015904","912","513","2","1","1","1","1","true","",""
"","psychophysics","476","911018","0.0-2.0-1.147","afa","[""l""]","","","","","","null","key","null","null","16.671932203391314","912","513","2","1","1","1","1","","",""
"","psychophysics","477","912028","0.0-2.0-2.147-0.147","afa","[""l""]","","","","","","null","key","null","null","16.672766666667304","912","513","2","1","1","1","1","","",""
"","psychophysics","478","914080","0.0-2.0-0.148","afa","[""l""]","","","","","","1347","key","m","m","16.67173770491843","912","513","2","0","0","1","1","true","",""
"","psychophysics","479","915086","0.0-2.0-1.148","afa","[""l""]","","","","","","null","key","null","null","16.67291525423811","912","513","2","0","0","1","1","","",""
"","psychophysics","480","916104","0.0-2.0-2.148-0.148","afa","[""l""]","","","","","","null","key","null","null","16.67278333333282","912","513","2","0","0","1","1","","",""
"","psychophysics","481","917929","0.0-2.0-0.149","afa","[""l""]","","","","","","1122","key","m","m","16.672633027523293","912","513","1","1","0","0","0","false","",""
"","psychophysics","482","918937","0.0-2.0-1.149","afa","[""l""]","","","","","","null","key","null","null","16.67211864406827","912","513","1","1","0","0","0","","",""
"","psychophysics","483","919947","0.0-2.0-3.149-0.149","afa","[""l""]","","","","","","null","key","null","null","16.672499999999612","912","513","1","1","0","0","0","","",""
"","psychophysics","484","922503","0.0-2.0-0.150","afa","[""l""]","","","","","","1853","key","m","m","16.671875","912","513","2","1","1","0","1","true","",""
"","psychophysics","485","923513","0.0-2.0-1.150","afa","[""l""]","","","","","","null","key","null","null","16.672200000000885","912","513","2","1","1","0","1","","",""
"","psychophysics","486","924522","0.0-2.0-2.150-0.150","afa","[""l""]","","","","","","null","key","null","null","16.671745762712387","912","513","2","1","1","0","1","","",""
"","psychophysics","487","927407","0.0-2.0-0.151","afa","[""l""]","","","","","","2181","key","z","z","16.67205813953512","912","513","2","0","1","1","0","false","",""
"","psychophysics","488","928415","0.0-2.0-1.151","afa","[""l""]","","","","","","null","key","null","null","16.67290000000115","912","513","2","0","1","1","0","","",""
"","psychophysics","489","929424","0.0-2.0-3.151-0.151","afa","[""l""]","","","","","","null","key","null","null","16.672525423728878","912","513","2","0","1","1","0","","",""
"","psychophysics","490","932050","0.0-2.0-0.152","afa","[""l""]","","","","","","1923","key","z","z","16.67203821656057","912","513","1","1","0","1","1","true","",""
"","psychophysics","491","933057","0.0-2.0-1.152","afa","[""l""]","","","","","","null","key","null","null","16.67184745762655","912","513","1","1","0","1","1","","",""
"","psychophysics","492","934066","0.0-2.0-2.152-0.152","afa","[""l""]","","","","","","null","key","null","null","16.673166666666898","912","513","1","1","0","1","1","","",""
"","psychophysics","493","936375","0.0-2.0-0.153","afa","[""l""]","","","","","","1605","key","z","z","16.67182481751852","912","513","1","0","1","1","1","true","",""
"","psychophysics","494","937384","0.0-2.0-1.153","afa","[""l""]","","","","","","null","key","null","null","16.672766666667304","912","513","1","0","1","1","1","","",""
"","psychophysics","495","938393","0.0-2.0-2.153-0.153","afa","[""l""]","","","","","","null","key","null","null","16.67240677965939","912","513","1","0","1","1","1","","",""
"","psychophysics","496","940519","0.0-2.0-0.154","afa","[""l""]","","","","","","1423","key","z","z","16.672212598425535","912","513","1","1","1","1","1","true","",""
"","psychophysics","497","941527","0.0-2.0-1.154","afa","[""l""]","","","","","","null","key","null","null","16.674457627117743","912","513","1","1","1","1","1","","",""
"","psychophysics","498","942537","0.0-2.0-2.154-0.154","afa","[""l""]","","","","","","null","key","null","null","16.67216666666791","912","513","1","1","1","1","1","","",""
"","psychophysics","499","944815","0.0-2.0-0.155","afa","[""l""]","","","","","","1574","key","z","z","16.671874074073923","912","513","1","1","1","1","0","true","",""
"","psychophysics","500","945823","0.0-2.0-1.155","afa","[""l""]","","","","","","null","key","null","null","16.6728166666658","912","513","1","1","1","1","0","","",""
"","psychophysics","501","946832","0.0-2.0-2.155-0.155","afa","[""l""]","","","","","","null","key","null","null","16.672525423728878","912","513","1","1","1","1","0","","",""
"","psychophysics","502","950055","0.0-2.0-0.156","afa","[""l""]","","","","","","2518","key","m","m","16.672124352331462","912","513","2","1","1","0","1","true","",""
"","psychophysics","503","951063","0.0-2.0-1.156","afa","[""l""]","","","","","","null","key","null","null","16.671525423728735","912","513","2","1","1","0","1","","",""
"","psychophysics","504","952074","0.0-2.0-2.156-0.156","afa","[""l""]","","","","","","null","key","null","null","16.6724166666662","912","513","2","1","1","0","1","","",""
"","psychophysics","505","959311","0.0-2.0-0.157","afa","[""l""]","","","","","","6534","key","z","z","16.67176674364896","912","513","2","1","0","1","0","false","",""
"","psychophysics","506","960319","0.0-2.0-1.157","afa","[""l""]","","","","","","null","key","null","null","16.673050847456995","912","513","2","1","0","1","0","","",""
"","psychophysics","507","961328","0.0-2.0-3.157-0.157","afa","[""l""]","","","","","","null","key","null","null","16.67213333333299","912","513","2","1","0","1","0","","",""
"","psychophysics","508","963351","0.0-2.0-0.158","afa","[""l""]","","","","","","1319","key","z","z","16.672274999999598","912","513","1","1","1","1","1","true","",""
"","psychophysics","509","964359","0.0-2.0-1.158","afa","[""l""]","","","","","","null","key","null","null","16.672916666666666","912","513","1","1","1","1","1","","",""
"","psychophysics","510","965368","0.0-2.0-2.158-0.158","afa","[""l""]","","","","","","null","key","null","null","16.672661016947764","912","513","1","1","1","1","1","","",""
"","psychophysics","511","967011","0.0-2.0-0.159","afa","[""l""]","","","","","","939","key","z","z","16.67263265306187","912","513","1","1","1","1","1","true","",""
"","psychophysics","512","968018","0.0-2.0-1.159","afa","[""l""]","","","","","","null","key","null","null","16.671135593219503","912","513","1","1","1","1","1","","",""
"","psychophysics","513","969027","0.0-2.0-2.159-0.159","afa","[""l""]","","","","","","null","key","null","null","16.671733333333396","912","513","1","1","1","1","1","","",""
"","psychophysics","514","970815","0.0-2.0-0.160","afa","[""l""]","","","","","","1085","key","z","z","16.67243396226352","912","513","1","0","1","1","1","true","",""
"","psychophysics","515","971823","0.0-2.0-1.160","afa","[""l""]","","","","","","null","key","null","null","16.671711864407662","912","513","1","0","1","1","1","","",""
"","psychophysics","516","972832","0.0-2.0-2.160-0.160","afa","[""l""]","","","","","","null","key","null","null","16.672733333334328","912","513","1","0","1","1","1","","",""
"","psychophysics","517","975559","0.0-2.0-0.161","afa","[""l""]","","","","","","2023","key","m","m","16.672006172840167","912","513","1","1","0","0","1","false","",""
"","psychophysics","518","976566","0.0-2.0-1.161","afa","[""l""]","","","","","","null","key","null","null","16.67233333333473","912","513","1","1","0","0","1","","",""
"","psychophysics","519","977575","0.0-2.0-3.161-0.161","afa","[""l""]","","","","","","null","key","null","null","16.671949152542688","912","513","1","1","0","0","1","","",""
"","psychophysics","520","980031","0.0-2.0-0.162","afa","[""l""]","","","","","","1751","key","z","z","16.672095238094908","912","513","2","1","1","0","0","false","",""
"","psychophysics","521","981038","0.0-2.0-1.162","afa","[""l""]","","","","","","null","key","null","null","16.671559322033456","912","513","2","1","1","0","0","","",""
"","psychophysics","522","982048","0.0-2.0-3.162-0.162","afa","[""l""]","","","","","","null","key","null","null","16.672266666666836","912","513","2","1","1","0","0","","",""
"","psychophysics","523","984650","0.0-2.0-0.163","afa","[""l""]","","","","","","1898","key","z","z","16.67174838709705","912","513","1","1","1","0","1","true","",""
"","psychophysics","524","985657","0.0-2.0-1.163","afa","[""l""]","","","","","","null","key","null","null","16.671576271186805","912","513","1","1","1","0","1","","",""
"","psychophysics","525","986666","0.0-2.0-2.163-0.163","afa","[""l""]","","","","","","null","key","null","null","16.673400000001614","912","513","1","1","1","0","1","","",""
"","psychophysics","526","988959","0.0-2.0-0.164","afa","[""l""]","","","","","","1590","key","z","z","16.671779411764447","912","513","2","0","1","1","0","false","",""
"","psychophysics","527","989968","0.0-2.0-1.164","afa","[""l""]","","","","","","null","key","null","null","16.672366666667706","912","513","2","0","1","1","0","","",""
"","psychophysics","528","990977","0.0-2.0-3.164-0.164","afa","[""l""]","","","","","","null","key","null","null","16.671830508475175","912","513","2","0","1","1","0","","",""
"","psychophysics","529","992969","0.0-2.0-0.165","afa","[""l""]","","","","","","1288","key","m","m","16.672109243697722","912","513","2","1","0","1","1","true","",""
"","psychophysics","530","993976","0.0-2.0-1.165","afa","[""l""]","","","","","","null","key","null","null","16.671525423728735","912","513","2","1","0","1","1","","",""
"","psychophysics","531","994985","0.0-2.0-2.165-0.165","afa","[""l""]","","","","","","null","key","null","null","16.67215000000045","912","513","2","1","0","1","1","","",""
"","psychophysics","532","997571","0.0-2.0-0.166","afa","[""l""]","","","","","","1882","key","z","z","16.671519480519414","912","513","1","0","1","1","1","true","",""
"","psychophysics","533","998579","0.0-2.0-1.166","afa","[""l""]","","","","","","null","key","null","null","16.672050847458827","912","513","1","0","1","1","1","","",""
"","psychophysics","534","999588","0.0-2.0-2.166-0.166","afa","[""l""]","","","","","","null","key","null","null","16.672383333333226","912","513","1","0","1","1","1","","",""
"","psychophysics","535","1001488","0.0-2.0-0.167","afa","[""l""]","","","","","","1196","key","m","m","16.671823008849277","912","513","2","0","1","1","1","true","",""
"","psychophysics","536","1002495","0.0-2.0-1.167","afa","[""l""]","","","","","","null","key","null","null","16.671169491526197","912","513","2","0","1","1","1","","",""
"","psychophysics","537","1003505","0.0-2.0-2.167-0.167","afa","[""l""]","","","","","","null","key","null","null","16.673549999999036","912","513","2","0","1","1","1","","",""
"","psychophysics","538","1006415","0.0-2.0-0.168","afa","[""l""]","","","","","","2207","key","m","m","16.671635838150117","912","513","2","1","0","1","0","true","",""
"","psychophysics","539","1007423","0.0-2.0-1.168","afa","[""l""]","","","","","","null","key","null","null","16.673183333334357","912","513","2","1","0","1","0","","",""
"","psychophysics","540","1008433","0.0-2.0-2.168-0.168","afa","[""l""]","","","","","","null","key","null","null","16.672186440677713","912","513","2","1","0","1","0","","",""
"","psychophysics","541","1010191","0.0-2.0-0.169","afa","[""l""]","","","","","","1051","key","z","z","16.672247619047717","912","513","1","0","1","1","1","true","",""
"","psychophysics","542","1011198","0.0-2.0-1.169","afa","[""l""]","","","","","","null","key","null","null","16.672881355933388","912","513","1","0","1","1","1","","",""
"","psychophysics","543","1012207","0.0-2.0-2.169-0.169","afa","[""l""]","","","","","","null","key","null","null","16.67231666666727","912","513","1","0","1","1","1","","",""
"","psychophysics","544","1014103","0.0-2.0-0.170","afa","[""l""]","","","","","","1192","key","m","m","16.671741071428446","912","513","2","0","0","1","1","true","",""
"","psychophysics","545","1015111","0.0-2.0-1.170","afa","[""l""]","","","","","","null","key","null","null","16.672466666666637","912","513","2","0","0","1","1","","",""
"","psychophysics","546","1016121","0.0-2.0-2.170-0.170","afa","[""l""]","","","","","","null","key","null","null","16.672694915254457","912","513","2","0","0","1","1","","",""
"","psychophysics","547","1017863","0.0-2.0-0.171","afa","[""l""]","","","","","","1037","key","m","m","16.672028846154436","912","513","2","1","1","1","1","true","",""
"","psychophysics","548","1018871","0.0-2.0-1.171","afa","[""l""]","","","","","","null","key","null","null","16.6704406779658","912","513","2","1","1","1","1","","",""
"","psychophysics","549","1019880","0.0-2.0-2.171-0.171","afa","[""l""]","","","","","","null","key","null","null","16.672583333333023","912","513","2","1","1","1","1","","",""
"","psychophysics","550","1021679","0.0-2.0-0.172","afa","[""l""]","","","","","","1096","key","m","m","16.672448598131293","912","513","2","0","1","1","1","true","",""
"","psychophysics","551","1022686","0.0-2.0-1.172","afa","[""l""]","","","","","","null","key","null","null","16.67215254237299","912","513","2","0","1","1","1","","",""
"","psychophysics","552","1023696","0.0-2.0-2.172-0.172","afa","[""l""]","","","","","","null","key","null","null","16.67294999999964","912","513","2","0","1","1","1","","",""
"","psychophysics","553","1026367","0.0-2.0-0.173","afa","[""l""]","","","","","","1967","key","z","z","16.67192452830122","912","513","1","1","0","1","0","true","",""
"","psychophysics","554","1027374","0.0-2.0-1.173","afa","[""l""]","","","","","","null","key","null","null","16.672830508475318","912","513","1","1","0","1","0","","",""
"","psychophysics","555","1028383","0.0-2.0-2.173-0.173","afa","[""l""]","","","","","","null","key","null","null","16.672649999998974","912","513","1","1","0","1","0","","",""
"","psychophysics","556","1031671","0.0-2.0-0.174","afa","[""l""]","","","","","","2583","key","z","z","16.67193877551056","912","513","2","1","1","0","0","false","",""
"","psychophysics","557","1032680","0.0-2.0-1.174","afa","[""l""]","","","","","","null","key","null","null","16.67305000000051","912","513","2","1","1","0","0","","",""
"","psychophysics","558","1033689","0.0-2.0-3.174-0.174","afa","[""l""]","","","","","","null","key","null","null","16.671711864407662","912","513","2","1","1","0","0","","",""
"","psychophysics","559","1035832","0.0-2.0-0.175","afa","[""l""]","","","","","","1440","key","m","m","16.672140624999884","912","513","2","0","1","0","1","true","",""
"","psychophysics","560","1036840","0.0-2.0-1.175","afa","[""l""]","","","","","","null","key","null","null","16.671508474575386","912","513","2","0","1","0","1","","",""
"","psychophysics","561","1037850","0.0-2.0-2.175-0.175","afa","[""l""]","","","","","","null","key","null","null","16.672583333333023","912","513","2","0","1","0","1","","",""
"","psychophysics","562","1040617","0.0-2.0-0.176","afa","[""l""]","","","","","","2064","key","m","m","16.67183030303003","912","513","1","1","0","0","0","false","",""
"","psychophysics","563","1041625","0.0-2.0-1.176","afa","[""l""]","","","","","","null","key","null","null","16.67245762711943","912","513","1","1","0","0","0","","",""
"","psychophysics","564","1042634","0.0-2.0-3.176-0.176","afa","[""l""]","","","","","","null","key","null","null","16.673116666666466","912","513","1","1","0","0","0","","",""
"","psychophysics","565","1044927","0.0-2.0-0.177","afa","[""l""]","","","","","","1589","key","z","z","16.67188235294067","912","513","1","0","0","1","1","true","",""
"","psychophysics","566","1045936","0.0-2.0-1.177","afa","[""l""]","","","","","","null","key","null","null","16.672566666665563","912","513","1","0","0","1","1","","",""
"","psychophysics","567","1046944","0.0-2.0-2.177-0.177","afa","[""l""]","","","","","","null","key","null","null","16.671949152542688","912","513","1","0","0","1","1","","",""
"","psychophysics","568","1048819","0.0-2.0-0.178","afa","[""l""]","","","","","","1171","key","m","m","16.671803571429336","912","513","1","0","0","0","0","false","",""
"","psychophysics","569","1049827","0.0-2.0-1.178","afa","[""l""]","","","","","","null","key","null","null","16.671152542372848","912","513","1","0","0","0","0","","",""
"","psychophysics","570","1050836","0.0-2.0-3.178-0.178","afa","[""l""]","","","","","","null","key","null","null","16.672633333333458","912","513","1","0","0","0","0","","",""
"","psychophysics","571","1052520","0.0-2.0-0.179","afa","[""l""]","","","","","","981","key","m","m","16.671720000000207","912","513","2","1","1","1","1","true","",""
"","psychophysics","572","1053528","0.0-2.0-1.179","afa","[""l""]","","","","","","null","key","null","null","16.6723220338966","912","513","2","1","1","1","1","","",""
"","psychophysics","573","1054540","0.0-2.0-2.179-0.179","afa","[""l""]","","","","","","null","key","null","null","16.67278333333476","912","513","2","1","1","1","1","","",""
"","psychophysics","574","1058673","0.0-2.0-0.180","afa","[""l""]","","","","","","3429","key","m","m","16.67182186234795","912","513","1","1","0","0","1","false","",""
"","psychophysics","575","1059680","0.0-2.0-1.180","afa","[""l""]","","","","","","null","key","null","null","16.67205084745488","912","513","1","1","0","0","1","","",""
"","psychophysics","576","1060690","0.0-2.0-3.180-0.180","afa","[""l""]","","","","","","null","key","null","null","16.67271666666881","912","513","1","1","0","0","1","","",""
"","psychophysics","577","1062751","0.0-2.0-0.181","afa","[""l""]","","","","","","1357","key","z","z","16.671811475408965","912","513","1","0","0","0","1","true","",""
"","psychophysics","578","1063759","0.0-2.0-1.181","afa","[""l""]","","","","","","null","key","null","null","16.672400000000682","912","513","1","0","0","0","1","","",""
"","psychophysics","579","1064768","0.0-2.0-2.181-0.181","afa","[""l""]","","","","","","null","key","null","null","16.67208474576552","912","513","1","0","0","0","1","","",""
