subID,trialNum,cntBalance,correct,rt,winner,p1conf,p2conf,p1rslt,p2rslt,
ly1,1,L,true,6831,2,1,1,1,1,
ly1,2,L,true,6766,1,1,0,1,0,
ly1,3,L,true,10580,2,1,1,0,1,
ly1,4,L,true,5162,1,1,1,1,1,
ly1,5,L,false,6201,1,0,0,1,1,
ly1,6,L,true,5935,1,1,0,1,1,
ly1,7,L,false,4543,1,0,0,1,0,
ly1,8,L,true,10899,1,0,0,0,1,
ly1,9,L,true,4935,1,1,0,1,1,
ly1,10,L,false,2582,1,0,0,0,0,
ly1,11,L,true,4568,2,0,1,1,1,
ly1,12,L,true,3444,1,0,1,1,1,
ly1,13,L,true,2364,1,1,0,1,1,
ly1,14,L,true,1099,2,1,1,1,1,
ly1,15,L,false,1718,1,0,0,0,0,
ly1,16,L,true,4461,1,0,0,0,1,
ly1,17,L,false,3459,1,0,0,1,0,
ly1,18,L,false,1600,2,0,0,0,0,
ly1,19,L,false,1517,2,0,0,0,0,
ly1,20,L,true,1485,1,1,1,1,1,
ly1,21,L,true,2381,2,0,0,0,1,
ly1,22,L,true,3221,1,0,0,1,1,
ly1,23,L,false,4283,1,1,1,0,1,
ly1,24,L,false,2278,1,0,1,0,0,
ly1,25,L,true,2277,2,0,1,0,1,
ly1,26,L,false,2988,1,1,0,0,1,
ly1,27,L,false,2293,2,0,0,0,1,
ly1,28,L,true,1665,2,1,1,1,1,
ly1,29,L,true,1898,1,0,1,1,1,
ly1,30,L,false,2800,2,1,0,0,1,
ly1,31,L,true,3221,2,0,0,0,1,
ly1,32,L,true,2048,2,1,0,1,1,
ly1,33,L,true,1238,1,1,0,1,1,
ly1,34,L,true,2439,2,1,1,1,1,
ly1,35,L,true,2697,2,0,0,0,1,
ly1,36,L,false,2379,1,0,0,0,1,
ly1,37,L,true,1114,2,1,1,1,1,
ly1,38,L,true,1083,1,0,0,1,1,
ly1,39,L,true,1482,1,1,0,1,0,
ly1,40,L,true,1526,2,1,0,1,1,
ly1,41,L,true,2171,1,0,0,0,1,
ly1,42,L,true,2583,1,1,0,1,0,
ly1,43,L,true,1279,1,1,0,1,1,
ly1,44,L,true,1368,2,0,0,1,1,
ly1,45,L,true,1985,2,0,0,1,1,
ly1,46,L,true,1463,2,1,1,1,1,
ly1,47,L,true,1014,1,1,0,1,1,
ly1,48,L,true,1101,2,0,1,0,1,
ly1,49,L,false,1701,1,0,0,1,0,
ly1,50,L,true,1407,1,1,0,1,1,
ly1,51,L,true,1587,2,1,1,0,1,
ly1,52,L,false,1282,2,0,0,0,0,
ly1,53,L,true,2213,1,0,1,0,1,
ly1,54,L,false,1577,2,1,1,0,0,
ly1,55,L,true,1614,2,0,0,0,1,
ly1,56,L,true,1300,2,0,1,0,1,
ly1,57,L,true,1546,2,0,0,1,1,
ly1,58,L,true,1976,1,1,0,1,1,
ly1,59,L,false,2628,1,0,0,1,0,
ly1,60,L,false,6550,2,0,1,1,0,
ly1,61,L,true,3228,2,0,0,0,1,
ly1,62,L,true,2955,1,1,1,1,1,
ly1,63,L,true,995,2,0,1,1,1,
ly1,64,L,true,2153,1,1,1,1,1,
ly1,65,L,true,3659,1,1,1,1,0,
ly1,66,L,false,1470,1,1,1,1,0,
ly1,67,L,true,1150,1,0,0,1,1,
ly1,68,L,true,1392,2,0,0,1,1,
ly1,69,L,true,980,1,0,0,1,1,
ly1,70,L,true,2309,2,1,1,1,0,
ly1,71,L,true,814,1,0,0,1,1,
ly1,72,L,true,813,2,0,0,1,1,
ly1,73,L,true,925,2,1,0,1,1,
ly1,74,L,true,1773,1,1,0,1,0,
ly1,75,L,true,1563,1,1,0,1,1,
ly1,76,L,true,1209,1,1,0,1,1,
ly1,77,L,true,1323,2,0,0,0,1,
ly1,78,L,false,2039,1,0,1,0,0,
ly1,79,L,true,2981,1,1,1,1,1,
ly1,80,L,false,3972,1,1,1,1,0,
ly1,81,L,true,2042,2,0,0,0,1,
ly1,82,L,true,2038,2,1,0,0,1,
ly1,83,L,true,1690,1,0,1,0,1,
ly1,84,L,true,1368,1,0,1,1,1,
ly1,85,L,false,960,2,0,1,1,0,
ly1,86,L,true,1424,2,1,1,1,1,
ly1,87,L,false,1193,1,1,1,0,0,
ly1,88,L,true,2370,1,1,0,1,1,
ly1,89,L,true,1164,1,0,0,1,1,
ly1,90,L,true,1149,1,1,0,1,1,
ly1,91,L,true,1512,1,1,1,0,1,
ly1,92,L,true,2366,2,0,0,0,1,
ly1,93,L,true,1014,1,0,0,1,1,
ly1,94,L,true,1630,2,1,1,1,1,
ly1,95,L,false,1745,1,0,0,1,0,
ly1,96,L,false,1097,2,0,1,0,0,
ly1,97,L,false,2402,1,0,0,0,1,
ly1,98,L,false,1365,2,0,1,1,0,
ly1,99,L,true,1834,1,0,1,1,1,
ly1,100,L,true,2574,1,0,1,1,1,
brk,brk,brk,brk,brk,brk,brk,brk,brk,brk,
ly1,101,L,false,5393,2,0,0,0,1,
ly1,102,L,true,1101,2,0,1,0,1,
ly1,103,L,true,1714,1,1,0,1,0,
ly1,104,L,true,2270,2,1,0,1,0,
ly1,105,L,true,1151,2,0,0,1,1,
ly1,106,L,true,1297,1,0,0,1,1,
ly1,107,L,true,1697,1,0,1,1,1,
ly1,108,L,false,1878,1,0,1,0,1,
ly1,109,L,false,2985,1,0,0,0,0,
ly1,110,L,true,2027,2,1,0,1,1,
ly1,111,L,true,1631,2,1,1,0,1,
ly1,112,L,true,1642,1,1,0,1,1,
ly1,113,L,true,1581,2,0,0,1,1,
ly1,114,L,true,2265,1,1,1,0,1,
ly1,115,L,true,1017,1,0,0,1,1,
ly1,116,L,true,951,2,0,1,1,1,
ly1,117,L,false,1881,1,1,0,0,1,
ly1,118,L,true,1681,1,1,1,1,1,
ly1,119,L,true,1126,2,0,1,1,1,
ly1,120,L,true,1449,1,1,0,1,1,
ly1,121,L,true,1194,1,0,0,1,1,
ly1,122,L,true,1395,1,0,1,1,1,
ly1,123,L,true,677,2,1,1,1,1,
ly1,124,L,true,1911,2,1,1,1,0,
ly1,125,L,false,1184,2,0,1,0,0,
ly1,126,L,true,935,2,0,0,1,1,
ly1,127,L,true,770,1,1,0,1,1,
ly1,128,L,true,2296,1,0,1,1,1,
ly1,129,L,true,1465,2,1,1,0,1,
ly1,130,L,true,1490,2,1,1,1,0,
ly1,131,L,true,1559,2,1,0,1,0,
ly1,132,L,true,1273,2,1,1,1,0,
ly1,133,L,true,1134,2,1,1,1,0,
ly1,134,L,true,952,1,0,0,1,1,
ly1,135,L,false,1256,2,0,1,0,0,
ly1,136,L,true,982,1,1,0,1,1,
ly1,137,L,true,1864,2,1,1,1,0,
ly1,138,L,true,1096,2,0,1,1,1,
ly1,139,L,true,758,1,1,1,1,1,
ly1,140,L,false,1216,1,1,0,1,0,
ly1,141,L,true,1679,2,1,1,1,0,
ly1,142,L,false,800,1,0,0,0,0,
ly1,143,L,true,1361,1,1,1,1,1,
ly1,144,L,true,897,2,1,0,1,1,
ly1,145,L,true,1920,1,1,0,1,1,
ly1,146,L,true,919,1,0,0,1,0,
ly1,147,L,true,936,1,0,0,1,1,
ly1,148,L,true,897,1,1,1,1,1,
ly1,149,L,false,718,1,0,0,0,1,
ly1,150,L,false,865,2,0,0,0,0,
ly1,151,L,true,960,2,0,1,1,1,
ly1,152,L,false,808,1,0,1,0,0,
ly1,153,L,true,839,2,0,0,1,1,
ly1,154,L,true,3347,1,0,1,0,1,
ly1,155,L,false,1308,1,0,1,1,0,
ly1,156,L,false,1584,1,1,0,0,1,
ly1,157,L,true,1615,1,0,1,1,1,
ly1,158,L,true,1482,2,1,0,1,0,
ly1,159,L,true,1056,1,0,0,1,1,
ly1,160,L,true,1911,1,1,0,1,0,
ly1,161,L,true,1231,2,0,1,1,1,
ly1,162,L,true,1630,2,0,0,1,1,
ly1,163,L,false,5056,1,0,0,0,1,
ly1,164,L,false,2252,1,0,0,1,0,
ly1,165,L,false,1961,2,0,0,0,1,
ly1,166,L,true,1703,1,1,0,1,1,
ly1,167,L,true,1695,1,1,1,1,1,
ly1,168,L,false,845,2,0,0,0,0,
ly1,169,L,true,800,2,1,1,1,1,
ly1,170,L,true,759,1,0,0,1,1,
ly1,171,L,true,995,2,1,1,1,1,
ly1,172,L,true,857,2,0,0,1,1,
ly1,173,L,true,1239,2,1,1,1,1,
ly1,174,L,true,2192,2,0,1,0,1,
ly1,175,L,false,1352,1,0,1,1,0,
ly1,176,L,true,1497,1,0,1,1,1,
ly1,177,L,true,1800,2,0,1,1,1,
ly1,178,L,true,2150,1,1,1,1,1,
ly1,179,L,false,1353,1,1,1,0,0,
ly1,180,L,false,2927,1,0,0,0,1,
ly1,181,L,true,1234,1,1,0,1,0,
ly1,182,L,false,1567,1,1,0,0,1,
ly1,183,L,true,1004,2,1,1,1,1,
ly1,184,L,true,1355,2,0,1,0,1,
ly1,185,L,true,943,2,0,1,1,1,
ly1,186,L,true,1229,2,1,0,1,1,
ly1,187,L,false,1431,1,0,1,1,0,
ly1,188,L,true,1119,1,1,1,1,1,
ly1,189,L,false,1683,1,1,1,1,0,
ly1,190,L,false,1423,1,1,1,1,0,
ly1,191,L,true,1360,2,1,0,1,0,
ly1,192,L,true,1205,1,1,1,1,1,
ly1,193,L,false,774,1,0,1,0,0,
ly1,194,L,true,718,2,1,0,1,0,
ly1,195,L,true,1575,1,1,1,1,0,
ly1,196,L,false,1591,2,0,0,0,1,
ly1,197,L,true,1417,2,1,0,1,1,
ly1,198,L,true,880,2,1,0,1,1,
ly1,199,L,false,1203,2,0,1,0,0,
ly1,200,L,true,1157,1,0,0,1,1,
brk,brk,brk,brk,brk,brk,brk,brk,brk,brk,
ly1,201,L,false,2482,1,1,1,1,0,
ly1,202,L,true,1031,2,0,1,1,1,
ly1,203,L,true,1734,2,0,0,1,0,
ly1,204,L,false,1976,1,1,1,1,0,
ly1,205,L,false,792,2,1,0,1,1,
ly1,206,L,true,1384,2,0,0,1,1,
ly1,207,L,true,1712,1,0,1,0,1,
ly1,208,L,false,1591,1,0,0,0,1,
ly1,209,L,true,1185,2,1,1,1,1,
ly1,210,L,true,1015,1,0,0,0,1,
ly1,211,L,false,1415,1,1,0,0,0,
ly1,212,L,false,1221,2,0,0,0,1,
ly1,213,L,true,1099,2,1,1,1,1,
ly1,214,L,true,1158,2,0,0,1,0,
ly1,215,L,false,944,1,1,1,0,0,
ly1,216,L,false,880,2,0,1,0,1,
ly1,217,L,true,2711,1,1,0,1,1,
ly1,218,L,true,1600,2,0,1,1,1,
ly1,219,L,false,1263,1,0,0,0,0,
ly1,220,L,true,1089,1,1,0,1,1,
ly1,221,L,true,1624,1,1,0,1,1,
ly1,222,L,true,1784,2,0,0,1,0,
ly1,223,L,false,1384,1,0,0,0,1,
ly1,224,L,false,1297,2,0,0,0,1,
ly1,225,L,false,832,1,1,0,0,1,
ly1,226,L,true,944,1,0,1,1,1,
ly1,227,L,true,1926,1,1,1,1,1,
ly1,228,L,true,1408,2,0,1,0,1,
ly1,229,L,true,1144,1,0,0,1,1,
ly1,230,L,true,718,2,0,0,1,0,
ly1,231,L,false,1416,1,1,1,0,0,
ly1,232,L,true,1111,2,0,0,0,1,
ly1,233,L,false,940,1,0,0,1,0,
ly1,234,L,true,960,2,1,1,1,1,
ly1,235,L,true,656,1,0,0,1,1,
ly1,236,L,true,681,2,1,0,1,1,
ly1,237,L,true,1016,1,0,1,1,1,
ly1,238,L,false,998,1,1,1,1,0,
ly1,239,L,true,1195,2,0,0,1,0,
ly1,240,L,false,712,1,0,1,0,1,
ly1,241,L,true,1184,1,1,1,1,1,
ly1,242,L,false,2046,1,0,1,1,0,
ly1,243,L,false,722,1,0,0,0,1,
ly1,244,L,true,1101,2,0,0,1,1,
ly1,245,L,true,727,2,0,1,1,1,
ly1,246,L,true,888,1,0,1,1,0,
ly1,247,L,true,977,1,0,0,1,1,
ly1,248,L,true,696,1,0,1,1,1,
ly1,249,L,false,756,1,0,1,0,0,
ly1,250,L,false,851,2,0,0,0,0,
ly1,251,L,true,856,2,1,0,1,1,
ly1,252,L,true,1142,2,0,0,1,1,
ly1,253,L,true,779,1,1,0,1,0,
ly1,254,L,false,688,2,0,1,0,0,
ly1,255,L,true,704,1,1,1,1,1,
ly1,256,L,true,687,1,0,0,1,1,
ly1,257,L,false,647,2,1,1,0,1,
ly1,258,L,true,792,2,1,0,1,1,
ly1,259,L,true,672,1,0,1,1,1,
ly1,260,L,true,639,1,0,1,1,1,
ly1,261,L,false,710,1,0,0,0,1,
ly1,262,L,false,960,2,0,1,0,1,
ly1,263,L,true,816,2,1,1,1,0,
ly1,264,L,true,680,1,1,0,1,1,
ly1,265,L,true,793,2,1,0,1,1,
ly1,266,L,true,744,1,0,0,1,1,
ly1,267,L,false,1064,1,0,0,0,0,
ly1,268,L,true,636,1,1,0,1,1,
ly1,269,L,true,860,2,0,0,1,1,
ly1,270,L,true,600,2,0,0,1,1,
ly1,271,L,true,565,2,1,1,1,1,
ly1,272,L,true,639,1,0,1,1,1,
ly1,273,L,false,655,2,0,1,0,1,
ly1,274,L,true,752,1,1,1,1,1,
ly1,275,L,false,1434,1,1,1,1,0,
ly1,276,L,false,834,2,1,1,0,0,
ly1,277,L,false,717,1,1,1,0,1,
ly1,278,L,true,727,2,0,1,1,1,
ly1,279,L,true,738,1,1,0,1,0,
ly1,280,L,true,1013,2,1,1,1,1,
ly1,281,L,true,605,1,1,0,1,0,
ly1,282,L,true,625,2,1,0,1,1,
ly1,283,L,true,423,2,1,1,1,1,
ly1,284,L,true,1011,1,0,0,0,1,
ly1,285,L,false,926,1,0,1,1,0,
ly1,286,L,false,788,1,1,1,1,1,
ly1,287,L,true,974,2,0,1,0,1,
ly1,288,L,false,713,2,1,0,0,1,
ly1,289,L,true,942,2,1,1,1,1,
ly1,290,L,true,1015,2,1,0,1,1,
ly1,291,L,true,702,2,0,0,1,0,
ly1,292,L,true,552,1,0,1,1,0,
ly1,293,L,false,792,2,1,1,0,0,
ly1,294,L,true,696,2,0,0,1,1,
ly1,295,L,true,735,1,0,0,1,1,
ly1,296,L,true,960,1,0,1,1,1,
ly1,297,L,true,1021,2,1,1,1,0,
ly1,298,L,true,807,2,1,0,1,1,
ly1,299,L,true,1145,2,1,1,1,1,
ly1,300,L,true,517,1,1,1,1,1,
brk,brk,brk,brk,brk,brk,brk,brk,brk,brk,
ly1,301,L,true,1051,2,0,0,1,1,
ly1,302,L,true,1063,2,1,1,0,1,
ly1,303,L,false,1019,1,1,0,0,1,
ly1,304,L,true,511,2,1,1,1,0,
ly1,305,L,false,599,1,0,1,0,1,
ly1,306,L,true,799,2,1,1,1,1,
ly1,307,L,true,1479,1,1,0,1,0,
ly1,308,L,true,1096,1,0,0,1,1,
ly1,309,L,false,649,1,1,1,0,1,
ly1,310,L,false,671,2,1,0,0,1,
ly1,311,L,false,1502,1,0,0,0,1,
ly1,312,L,false,850,1,0,1,0,1,
ly1,313,L,true,584,2,1,1,1,1,
ly1,314,L,false,974,2,0,1,0,0,
ly1,315,L,false,693,1,0,1,0,1,
ly1,316,L,false,644,2,1,1,0,1,
ly1,317,L,true,1085,1,1,1,1,1,
ly1,318,L,false,629,2,0,0,0,0,
ly1,319,L,false,621,2,0,1,0,1,
ly1,320,L,true,974,1,1,0,1,0,
ly1,321,L,true,1583,2,0,0,0,1,
ly1,322,L,true,553,1,0,0,1,0,
ly1,323,L,false,1073,2,0,0,1,0,
ly1,324,L,true,762,2,0,0,1,1,
ly1,325,L,false,1222,2,1,0,0,1,
ly1,326,L,true,758,2,1,1,1,1,
ly1,327,L,true,647,2,0,1,1,1,
ly1,328,L,true,607,1,1,1,1,0,
ly1,329,L,true,490,1,1,1,1,1,
ly1,330,L,true,631,1,0,0,1,1,
ly1,331,L,true,687,2,1,0,1,1,
ly1,332,L,false,559,1,0,0,0,1,
ly1,333,L,false,766,1,0,0,0,1,
ly1,334,L,true,502,2,0,0,1,1,
ly1,335,L,false,1072,2,0,0,0,1,
ly1,336,L,true,965,2,0,1,0,1,
ly1,337,L,true,680,2,1,0,1,0,
ly1,338,L,true,706,2,1,0,0,1,
ly1,339,L,true,991,2,0,1,0,1,
ly1,340,L,false,684,1,0,1,0,1,
ly1,341,L,true,1165,1,0,0,0,1,
ly1,342,L,true,805,1,0,1,1,1,
ly1,343,L,false,1383,1,0,1,1,0,
ly1,344,L,false,1632,1,0,0,1,0,
ly1,345,L,true,700,2,1,1,1,1,
ly1,346,L,true,663,2,1,0,1,1,
ly1,347,L,false,599,1,1,1,0,0,
ly1,348,L,false,646,1,0,0,1,0,
ly1,349,L,true,718,2,1,0,1,1,
ly1,350,L,false,728,2,0,1,0,1,
ly1,351,L,true,1024,1,0,1,1,1,
ly1,352,L,true,711,1,1,1,1,1,
ly1,353,L,true,1070,1,0,1,1,1,
ly1,354,L,true,1154,1,0,1,1,1,
ly1,355,L,true,797,2,1,0,1,1,
ly1,356,L,false,632,2,1,1,0,1,
ly1,357,L,true,752,1,1,1,1,1,
ly1,358,L,false,735,1,0,0,0,1,
ly1,359,L,false,1389,1,1,1,1,0,
ly1,360,L,true,1535,2,0,0,0,1,
ly1,361,L,false,832,1,1,0,1,0,
ly1,362,L,false,1168,1,0,1,0,0,
ly1,363,L,false,702,1,0,1,0,0,
ly1,364,L,true,1104,1,1,0,1,1,
ly1,365,L,false,912,1,1,0,0,0,
ly1,366,L,true,1309,1,0,1,1,1,
ly1,367,L,false,1183,1,0,0,1,0,
ly1,368,L,true,1422,2,1,0,1,1,
ly1,369,L,true,1324,1,1,0,1,0,
ly1,370,L,true,1395,1,1,0,1,1,
ly1,371,L,false,1708,2,0,1,0,0,
ly1,372,L,true,1055,2,0,0,1,1,
ly1,373,L,true,1527,2,0,1,0,1,
ly1,374,L,true,1920,2,1,1,1,1,
ly1,375,L,true,1190,2,1,0,1,1,
ly1,376,L,true,1631,2,0,0,1,0,
ly1,377,L,false,1049,2,1,0,0,0,
ly1,378,L,true,2063,2,0,1,0,1,
ly1,379,L,true,975,2,1,1,1,1,
ly1,380,L,true,904,2,1,1,1,1,
ly1,381,L,true,695,2,0,1,1,0,
ly1,382,L,true,1197,2,1,0,1,0,
ly1,383,L,true,1745,1,0,0,1,1,
ly1,384,L,false,947,1,1,0,0,0,
ly1,385,L,true,2406,2,0,1,0,1,
ly1,386,L,true,1151,1,1,0,1,0,
ly1,387,L,true,852,2,1,0,1,0,
ly1,388,L,true,1111,1,0,0,1,1,
ly1,389,L,true,1063,2,1,1,1,1,
ly1,390,L,false,1271,1,0,0,0,1,
ly1,391,L,true,1379,2,1,0,1,1,
ly1,392,L,true,1199,2,1,1,1,1,
ly1,393,L,true,1756,2,0,1,1,1,
ly1,394,L,true,822,2,1,1,1,1,
ly1,395,L,true,1046,2,1,0,1,1,
ly1,396,L,true,1406,2,1,1,1,1,
ly1,397,L,true,1109,1,0,1,1,1,
ly1,398,L,false,1080,1,1,1,1,0,
ly1,399,L,false,1870,1,1,1,0,1,
ly1,400,L,true,1280,2,0,1,0,1,
brk,brk,brk,brk,brk,brk,brk,brk,brk,brk,
ly1,401,L,true,2048,1,0,1,1,1,
ly1,402,L,true,5119,2,0,0,1,0,
ly1,403,L,true,1766,2,0,0,1,1,
ly1,404,L,true,1369,1,1,0,1,1,
ly1,405,L,true,1021,1,1,1,1,1,
ly1,406,L,true,997,1,1,1,1,1,
ly1,407,L,true,1246,1,0,1,1,1,
ly1,408,L,true,893,1,1,0,1,0,
ly1,409,L,true,990,1,1,1,1,1,
ly1,410,L,true,1135,1,1,0,1,0,
ly1,411,L,true,2116,1,0,1,0,1,
ly1,412,L,false,986,2,0,1,0,0,
ly1,413,L,true,886,1,0,1,1,1,
ly1,414,L,true,1122,1,1,0,1,1,
ly1,415,L,true,943,2,0,1,0,1,
ly1,416,L,true,1297,1,1,0,1,1,
ly1,417,L,false,1195,2,0,0,0,0,
ly1,418,L,true,984,1,0,1,1,1,
ly1,419,L,true,966,1,1,1,1,1,
ly1,420,L,false,776,2,1,1,1,0,
ly1,421,L,true,1227,1,0,0,1,1,
ly1,422,L,false,966,1,0,1,1,0,
ly1,423,L,false,974,2,0,0,1,0,
ly1,424,L,true,1023,1,1,1,1,1,
ly1,425,L,true,1443,2,0,1,1,1,
ly1,426,L,true,1109,2,1,0,1,1,
ly1,427,L,true,1679,2,0,0,0,1,
ly1,428,L,true,1312,2,1,0,1,1,
ly1,429,L,true,1119,1,0,0,0,1,
ly1,430,L,false,1720,2,1,0,0,0,
ly1,431,L,false,1549,1,1,1,0,1,
ly1,432,L,true,1404,1,0,0,0,1,
ly1,433,L,true,1053,2,0,1,1,1,
ly1,434,L,false,1423,1,1,0,0,0,
ly1,435,L,true,1044,1,0,0,0,1,
ly1,436,L,true,991,2,1,1,1,0,
ly1,437,L,false,1014,2,0,1,0,0,
ly1,438,L,false,1015,1,0,0,1,0,
ly1,439,L,true,986,1,0,0,1,1,
ly1,440,L,true,1252,2,1,0,1,0,
ly1,441,L,true,1015,2,0,1,1,1,
ly1,442,L,true,1039,1,0,0,1,1,
ly1,443,L,false,918,2,0,0,0,0,
ly1,444,L,false,1034,2,1,1,0,0,
ly1,445,L,true,1224,2,0,1,0,1,
ly1,446,L,true,888,1,0,0,1,1,
ly1,447,L,true,773,1,1,0,1,1,
ly1,448,L,false,1208,2,0,1,1,0,
ly1,449,L,true,1122,2,0,1,1,1,
ly1,450,L,true,1109,2,1,0,1,1,
ly1,451,L,true,1376,1,1,0,1,1,
ly1,452,L,true,1337,2,1,1,1,1,
ly1,453,L,true,860,2,1,1,1,1,
ly1,454,L,true,1436,2,1,1,0,1,
ly1,455,L,true,934,1,1,0,1,1,
ly1,456,L,false,713,2,1,0,0,1,
ly1,457,L,true,1353,2,1,0,1,1,
ly1,458,L,false,1853,1,0,1,1,0,
ly1,459,L,true,1439,1,1,0,1,0,
ly1,460,L,true,1038,1,1,1,1,1,
ly1,461,L,true,1528,2,1,0,1,1,
ly1,462,L,true,726,1,1,1,1,1,
ly1,463,L,true,1032,1,0,1,1,1,
ly1,464,L,true,1823,2,0,0,1,0,
ly1,465,L,false,847,1,0,0,0,0,
ly1,466,L,true,884,2,1,0,1,0,
ly1,467,L,true,1110,2,0,1,0,1,
ly1,468,L,true,831,2,0,1,1,1,
ly1,469,L,false,846,2,0,0,1,0,
ly1,470,L,true,1426,2,1,1,1,0,
ly1,471,L,true,1055,1,1,1,1,0,
ly1,472,L,false,2060,2,1,1,0,0,
ly1,473,L,true,831,1,1,1,1,0,
ly1,474,L,true,1185,2,0,1,0,1,
ly1,475,L,true,844,1,1,1,1,0,
ly1,476,L,true,971,1,1,1,1,1,
ly1,477,L,true,876,2,1,0,1,1,
ly1,478,L,false,755,1,0,0,0,1,
ly1,479,L,true,1339,1,1,1,1,1,
ly1,480,L,true,2028,1,0,1,0,1,
ly1,481,L,true,723,1,1,1,1,1,
ly1,482,L,false,1260,1,0,0,0,0,
ly1,483,L,false,1149,1,1,0,0,1,
ly1,484,L,true,1367,2,0,0,0,1,
ly1,485,L,true,774,1,1,0,1,1,
ly1,486,L,true,935,2,0,0,1,1,
ly1,487,L,true,1632,1,1,0,1,0,
ly1,488,L,true,1030,2,0,1,0,1,
ly1,489,L,true,624,2,1,0,1,0,
ly1,490,L,true,1006,2,0,1,1,1,
ly1,491,L,true,1080,2,0,1,1,1,
ly1,492,L,true,949,1,1,0,1,1,
ly1,493,L,true,744,1,1,0,1,1,
ly1,494,L,false,1422,1,0,0,0,1,
ly1,495,L,true,872,1,1,1,1,1,
ly1,496,L,true,1245,1,0,0,0,1,
ly1,497,L,false,1197,1,0,0,0,1,
ly1,498,L,true,944,1,1,0,1,1,
ly1,499,L,false,711,2,0,1,0,0,
ly1,500,L,true,830,1,0,1,1,1,
subID,trialNum,cntBalance,correct,rt,winner,p1conf,p2conf,p1rslt,p2rslt,
0uk,1,L,true,4981,1,1,1,1,1,
0uk,2,L,true,3162,2,1,1,1,1,
0uk,3,L,false,2632,1,1,1,1,0,
0uk,4,L,true,1705,2,1,0,1,0,
0uk,5,L,true,1734,2,1,0,1,1,
0uk,6,L,false,1558,2,1,1,1,0,
0uk,7,L,false,3964,2,0,0,0,0,
0uk,8,L,true,1960,2,0,1,1,1,
0uk,9,L,false,1221,1,0,1,1,0,
0uk,10,L,false,1822,1,1,0,0,1,
0uk,11,L,false,1971,2,0,1,0,0,
0uk,12,L,true,1151,2,0,0,1,1,
0uk,13,L,true,1488,2,1,0,1,0,
0uk,14,L,false,2333,2,1,1,0,1,
0uk,15,L,false,814,1,0,0,0,0,
0uk,16,L,true,1184,2,1,1,1,1,
0uk,17,L,true,248,2,1,1,1,0,
0uk,18,L,false,534,1,0,1,0,0,
0uk,19,L,false,600,1,1,1,1,0,
0uk,20,L,false,2272,2,1,1,1,0,
0uk,21,L,true,694,2,0,0,0,1,
0uk,22,L,true,719,2,1,0,0,1,
0uk,23,L,true,761,1,1,0,1,1,
0uk,24,L,false,1460,1,0,1,0,0,
0uk,25,L,false,352,2,1,0,1,1,
0uk,26,L,true,397,2,1,0,1,1,
0uk,27,L,false,388,1,0,1,1,1,
0uk,28,L,false,313,2,0,1,1,0,
0uk,29,L,false,248,1,1,1,1,1,
0uk,30,L,false,619,1,0,1,1,0,
0uk,31,L,false,352,2,1,1,0,1,
0uk,32,L,true,27,2,0,0,1,1,
0uk,33,L,true,215,1,0,0,1,0,
0uk,34,L,true,658,2,1,1,1,0,
0uk,35,L,true,248,2,1,1,1,0,
0uk,36,L,true,117,1,1,1,1,1,
0uk,37,L,false,106,2,1,0,1,1,
0uk,38,L,true,454,2,0,1,1,1,
0uk,39,L,false,392,2,0,0,0,0,
0uk,40,L,true,1609,2,1,1,1,1,
0uk,41,L,true,553,2,1,1,0,1,
0uk,42,L,false,288,2,1,1,0,0,
0uk,43,L,false,14,1,1,0,1,1,
0uk,44,L,false,132,2,0,0,0,1,
0uk,45,L,true,498,2,0,1,1,1,
0uk,46,L,false,490,1,1,1,1,1,
0uk,47,L,false,642,1,0,1,1,1,
0uk,48,L,true,3029,2,1,0,1,0,
0uk,49,L,false,2007,2,1,1,1,1,
0uk,50,L,true,1066,1,0,0,1,1,
0uk,51,L,true,474,2,0,0,1,0,
0uk,52,L,true,491,1,1,1,1,1,
0uk,53,L,true,171,2,1,1,1,0,
0uk,54,L,false,85,1,1,0,0,1,
0uk,55,L,true,729,1,1,1,1,1,
0uk,56,L,false,1513,2,0,0,1,0,
0uk,57,L,false,348,1,1,0,1,1,
0uk,58,L,false,367,2,0,0,1,1,
0uk,59,L,true,231,2,0,1,1,0,
0uk,60,L,false,143,1,1,0,1,1,
0uk,61,L,false,192,2,1,1,1,1,
0uk,62,L,true,113,2,0,1,1,1,
0uk,63,L,false,397,2,1,1,1,1,
0uk,64,L,true,452,2,1,0,0,1,
0uk,65,L,true,473,2,1,1,1,1,
0uk,66,L,true,519,2,1,1,0,1,
0uk,67,L,false,232,2,1,0,1,1,
0uk,68,L,false,232,1,0,1,0,0,
0uk,69,L,true,152,1,0,0,1,1,
0uk,70,L,true,89,1,1,1,0,1,
0uk,71,L,false,405,2,1,0,1,1,
0uk,72,L,true,565,2,1,1,1,1,
0uk,73,L,true,1518,2,1,0,1,0,
0uk,74,L,false,960,1,0,1,1,1,
0uk,75,L,true,1344,1,0,0,1,0,
0uk,76,L,false,1896,1,1,0,1,0,
0uk,77,L,true,704,1,0,1,0,1,
0uk,78,L,true,181,1,0,1,1,0,
0uk,79,L,false,351,2,0,1,1,1,
0uk,80,L,false,441,1,0,1,1,0,
0uk,81,L,true,127,1,1,0,1,1,
0uk,82,L,true,188,1,1,1,1,1,
0uk,83,L,false,152,2,0,0,1,1,
0uk,84,L,true,200,2,1,1,0,1,
0uk,85,L,false,257,1,1,1,1,1,
0uk,86,L,false,52,2,0,0,1,1,
0uk,87,L,true,8,2,0,0,0,0,
0uk,88,L,true,1252,1,0,1,1,1,
0uk,89,L,true,124,1,0,1,1,0,
0uk,90,L,true,466,1,1,0,1,1,
brk,brk,brk,brk,brk,brk,brk,brk,brk,brk,
0uk,91,L,false,2394,2,1,1,1,1,
0uk,92,L,false,0,1,0,1,1,1,
0uk,93,L,false,361,2,0,1,0,1,
0uk,94,L,true,216,2,1,1,1,1,
0uk,95,L,false,384,2,0,1,0,1,
0uk,96,L,true,351,2,1,0,1,0,
0uk,97,L,false,15,2,0,0,0,1,
0uk,98,L,false,280,1,0,1,0,1,
0uk,99,L,false,199,2,1,1,1,1,
0uk,100,L,true,70,2,1,0,1,0,
0uk,101,L,true,433,2,1,0,1,0,
0uk,102,L,false,250,1,0,0,1,1,
0uk,103,L,false,288,2,0,0,1,1,
0uk,104,L,false,199,2,1,1,1,1,
0uk,105,L,true,415,1,0,1,0,0,
0uk,106,L,true,161,1,0,1,1,1,
0uk,107,L,false,292,1,0,1,1,1,
0uk,108,L,false,329,1,0,0,0,1,
0uk,109,L,false,284,2,1,0,1,1,
0uk,110,L,true,793,2,0,1,1,0,
0uk,111,L,true,608,2,1,0,1,1,
0uk,112,L,false,233,1,1,0,1,0,
0uk,113,L,false,648,2,0,1,0,0,
0uk,114,L,true,144,2,1,0,1,0,
0uk,115,L,false,52,1,1,1,0,1,
0uk,116,L,false,397,2,1,1,0,1,
0uk,117,L,true,106,2,0,0,0,1,
0uk,118,L,true,442,2,0,1,0,1,
0uk,119,L,false,125,1,1,1,1,1,
0uk,120,L,false,545,2,0,1,0,1,
0uk,121,L,true,442,2,1,1,1,0,
0uk,122,L,false,24,1,1,1,1,0,
0uk,123,L,false,423,2,0,0,0,0,
0uk,124,L,false,208,1,0,1,0,0,
0uk,125,L,true,533,1,1,1,1,1,
0uk,126,L,false,433,2,0,0,1,1,
0uk,127,L,false,350,1,0,0,1,0,
0uk,128,L,false,359,2,1,0,1,1,
0uk,129,L,true,33,1,1,0,1,1,
0uk,130,L,true,153,2,0,1,0,0,
0uk,131,L,true,993,2,1,1,1,1,
0uk,132,L,false,690,2,1,1,1,0,
0uk,133,L,false,110,1,1,0,0,0,
0uk,134,L,true,33,1,1,0,1,1,
0uk,135,L,true,1552,1,0,0,1,0,
0uk,136,L,false,376,2,1,0,1,1,
0uk,137,L,true,473,2,1,1,1,1,
0uk,138,L,false,234,2,1,1,1,1,
0uk,139,L,true,373,2,0,0,0,1,
0uk,140,L,false,94,2,1,0,1,0,
0uk,141,L,false,49,1,1,1,1,1,
0uk,142,L,true,336,1,0,1,0,1,
0uk,143,L,true,2031,1,1,0,1,0,
0uk,144,L,false,799,1,0,1,1,0,
0uk,145,L,false,605,2,0,1,0,1,
0uk,146,L,false,791,1,0,0,1,1,
0uk,147,L,false,198,2,1,0,1,1,
0uk,148,L,false,436,1,0,0,0,1,
0uk,149,L,true,402,2,1,0,1,1,
0uk,150,L,true,409,2,1,0,1,1,
0uk,151,L,true,154,2,1,0,1,1,
0uk,152,L,true,164,2,1,1,1,1,
0uk,153,L,false,277,2,1,1,1,1,
0uk,154,L,false,289,1,1,1,1,1,
0uk,155,L,true,282,1,0,0,0,1,
0uk,156,L,true,139,2,0,1,1,1,
0uk,157,L,true,135,2,1,1,0,1,
0uk,158,L,true,433,2,1,0,0,1,
0uk,159,L,false,567,1,0,1,1,1,
0uk,160,L,false,200,2,0,0,0,0,
0uk,161,L,true,136,2,1,0,1,1,
0uk,162,L,true,171,2,1,0,1,1,
0uk,163,L,false,411,1,0,1,0,1,
0uk,164,L,false,121,2,0,0,1,1,
0uk,165,L,false,416,1,0,0,0,1,
0uk,166,L,true,277,1,1,1,1,1,
0uk,167,L,false,471,2,1,0,1,1,
0uk,168,L,true,125,2,0,0,1,1,
0uk,169,L,false,287,2,0,1,0,1,
0uk,170,L,false,348,1,0,1,1,1,
0uk,171,L,false,391,2,0,1,1,1,
0uk,172,L,false,1058,1,1,1,1,1,
0uk,173,L,true,84,1,1,1,1,1,
0uk,174,L,false,432,2,1,0,1,0,
0uk,175,L,true,398,2,1,1,0,1,
0uk,176,L,false,366,1,1,0,1,0,
0uk,177,L,false,119,2,0,0,0,1,
0uk,178,L,false,199,1,1,0,1,1,
0uk,179,L,true,71,1,0,0,1,1,
0uk,180,L,true,1512,1,1,1,1,1,
brk,brk,brk,brk,brk,brk,brk,brk,brk,brk,
0uk,181,L,false,4025,2,0,0,0,0,
0uk,182,L,false,396,1,1,0,1,1,
0uk,183,L,true,266,2,0,1,0,1,
0uk,184,L,false,615,1,1,1,1,1,
0uk,185,L,false,671,2,0,0,1,1,
0uk,186,L,true,129,2,0,1,1,0,
0uk,187,L,true,542,2,0,1,0,1,
0uk,188,L,false,248,2,0,1,1,1,
0uk,189,L,true,418,2,0,1,1,1,
0uk,190,L,false,1244,1,1,1,0,0,
0uk,191,L,true,139,1,1,1,0,0,
0uk,192,L,true,151,1,1,0,1,1,
0uk,193,L,true,22,1,1,1,0,1,
0uk,194,L,false,124,2,0,0,1,1,
0uk,195,L,true,128,2,0,1,0,1,
0uk,196,L,true,873,2,1,1,1,1,
0uk,197,L,true,351,2,0,1,1,1,
0uk,198,L,true,400,2,1,1,1,0,
0uk,199,L,true,737,1,1,0,0,0,
0uk,200,L,false,241,2,0,0,0,1,
0uk,201,L,true,238,2,1,0,1,1,
0uk,202,L,false,16,1,0,0,1,1,
0uk,203,L,false,842,1,0,1,1,1,
0uk,204,L,false,365,2,1,1,1,1,
0uk,205,L,false,573,1,0,1,1,1,
0uk,206,L,false,143,2,0,1,1,1,
0uk,207,L,false,82,2,1,0,1,0,
0uk,208,L,true,108,1,0,1,1,1,
0uk,209,L,true,337,2,0,0,1,1,
0uk,210,L,true,173,2,0,0,0,1,
0uk,211,L,false,256,1,1,0,0,0,
0uk,212,L,false,312,2,1,1,1,0,
0uk,213,L,false,269,1,0,0,1,1,
0uk,214,L,false,12,2,1,0,1,1,
0uk,215,L,true,265,2,1,1,1,1,
0uk,216,L,true,143,2,1,1,1,1,
0uk,217,L,false,497,2,0,1,0,1,
0uk,218,L,true,405,2,0,0,1,1,
0uk,219,L,false,40,1,1,1,0,1,
0uk,220,L,true,141,1,1,0,1,1,
0uk,221,L,false,246,2,1,0,1,1,
0uk,222,L,false,337,1,0,1,0,1,
0uk,223,L,false,166,2,1,1,0,1,
0uk,224,L,false,168,1,1,1,1,0,
0uk,225,L,true,105,1,0,0,1,1,
0uk,226,L,false,474,1,1,1,1,1,
0uk,227,L,true,25,1,1,1,0,0,
0uk,228,L,false,159,2,0,0,0,0,
0uk,229,L,true,385,2,0,0,1,1,
0uk,230,L,false,72,1,0,1,1,0,
0uk,231,L,true,9,1,1,0,1,0,
0uk,232,L,false,183,2,0,0,0,1,
0uk,233,L,true,144,2,0,1,1,1,
0uk,234,L,false,36,1,0,0,1,1,
0uk,235,L,true,408,2,1,1,0,1,
0uk,236,L,true,258,1,0,1,1,1,
0uk,237,L,true,572,1,0,0,1,0,
0uk,238,L,true,463,1,0,1,0,1,
0uk,239,L,true,200,1,1,0,1,0,
0uk,240,L,false,223,2,1,0,1,1,
0uk,241,L,true,49,2,0,1,1,1,
0uk,242,L,false,129,2,0,1,1,1,
0uk,243,L,true,480,2,0,0,0,1,
0uk,244,L,false,466,1,1,0,1,1,
0uk,245,L,false,32,2,1,0,1,1,
0uk,246,L,true,275,2,0,0,1,0,
0uk,247,L,true,394,2,0,1,1,0,
0uk,248,L,false,81,2,0,0,0,1,
0uk,249,L,false,94,1,1,1,1,1,
0uk,250,L,true,339,1,0,1,0,0,
0uk,251,L,false,20,2,1,1,1,1,
0uk,252,L,true,288,2,0,1,1,1,
0uk,253,L,true,374,2,1,1,1,0,
0uk,254,L,true,232,2,1,1,1,0,
0uk,255,L,true,287,2,1,1,1,1,
0uk,256,L,true,536,2,1,0,1,1,
0uk,257,L,true,191,1,1,0,1,1,
0uk,258,L,true,188,1,1,1,1,0,
0uk,259,L,false,542,2,0,0,0,1,
0uk,260,L,false,128,1,0,1,0,1,
0uk,261,L,false,293,1,1,1,1,0,
0uk,262,L,true,285,1,1,0,1,1,
0uk,263,L,true,79,1,1,1,1,1,
0uk,264,L,false,543,2,1,1,1,1,
0uk,265,L,true,345,2,1,0,1,1,
0uk,266,L,true,1113,1,1,1,1,0,
0uk,267,L,false,294,1,1,0,1,1,
0uk,268,L,true,204,1,0,1,0,1,
0uk,269,L,true,505,2,0,1,1,1,
0uk,270,L,true,374,2,0,1,0,0,
brk,brk,brk,brk,brk,brk,brk,brk,brk,brk,
0uk,271,L,false,4305,1,0,0,0,0,
0uk,272,L,true,69,1,0,1,1,1,
0uk,273,L,true,351,1,1,1,1,1,
0uk,274,L,false,43,2,0,0,0,1,
0uk,275,L,true,31,2,0,1,1,0,
0uk,276,L,true,354,1,0,0,1,1,
0uk,277,L,false,353,1,1,1,1,0,
0uk,278,L,false,458,2,1,1,1,1,
0uk,279,L,false,931,1,0,1,1,0,
0uk,280,L,false,515,2,0,1,1,1,
0uk,281,L,true,207,2,0,0,0,1,
0uk,282,L,true,257,2,0,1,1,1,
0uk,283,L,false,317,1,1,0,0,1,
0uk,284,L,true,176,1,1,1,1,1,
0uk,285,L,true,31,1,1,1,1,0,
0uk,286,L,false,81,2,1,0,1,1,
0uk,287,L,false,110,1,1,1,1,1,
0uk,288,L,true,361,1,0,1,0,1,
0uk,289,L,true,240,1,1,1,1,1,
0uk,290,L,false,375,2,0,0,0,0,
0uk,291,L,false,138,1,0,1,0,1,
0uk,292,L,false,355,2,1,0,0,0,
0uk,293,L,true,358,2,1,1,1,1,
0uk,294,L,false,422,1,0,1,1,1,
0uk,295,L,false,486,2,1,0,1,1,
0uk,296,L,true,185,2,1,1,1,0,
0uk,297,L,false,20,1,1,1,1,1,
0uk,298,L,true,126,1,0,1,0,0,
0uk,299,L,false,248,2,1,0,1,1,
0uk,300,L,true,346,2,1,1,1,0,
0uk,301,L,true,355,1,1,0,1,0,
0uk,302,L,false,309,2,0,1,1,1,
0uk,303,L,true,221,2,1,1,0,1,
0uk,304,L,false,677,1,0,0,1,0,
0uk,305,L,true,312,1,0,0,0,1,
0uk,306,L,false,98,2,0,0,1,1,
0uk,307,L,true,274,1,1,0,1,1,
0uk,308,L,false,292,2,1,0,1,0,
0uk,309,L,true,164,2,0,1,0,0,
0uk,310,L,false,125,1,1,1,0,1,
0uk,311,L,true,122,1,0,0,0,1,
0uk,312,L,false,539,2,1,1,0,1,
0uk,313,L,true,325,2,0,1,1,0,
0uk,314,L,false,192,1,0,0,0,1,
0uk,315,L,true,121,1,1,0,0,1,
0uk,316,L,false,149,2,0,1,1,1,
0uk,317,L,true,397,2,0,0,1,0,
0uk,318,L,true,248,2,0,1,0,1,
0uk,319,L,false,483,2,1,1,1,1,
0uk,320,L,true,343,2,0,1,0,1,
0uk,321,L,true,480,2,0,1,0,0,
0uk,322,L,false,863,1,0,1,1,1,
0uk,323,L,true,320,1,0,0,1,1,
0uk,324,L,true,287,1,1,1,1,1,
0uk,325,L,false,212,2,0,1,1,0,
0uk,326,L,false,291,1,1,1,0,0,
0uk,327,L,false,229,2,1,1,1,1,
0uk,328,L,false,211,1,0,1,0,1,
0uk,329,L,true,222,1,0,0,0,1,
0uk,330,L,false,56,2,1,1,1,0,
0uk,331,L,true,39,2,0,1,1,1,
0uk,332,L,true,248,2,1,1,0,0,
0uk,333,L,true,230,1,1,1,1,1,
0uk,334,L,true,393,2,0,0,1,0,
0uk,335,L,false,291,2,0,1,1,1,
0uk,336,L,false,128,1,0,1,1,1,
0uk,337,L,false,54,2,0,1,1,0,
0uk,338,L,false,193,1,0,1,0,1,
0uk,339,L,false,485,1,0,0,0,0,
0uk,340,L,true,534,2,1,0,1,0,
0uk,341,L,true,457,2,1,1,1,1,
0uk,342,L,false,276,2,0,0,1,1,
0uk,343,L,false,367,1,0,1,1,1,
0uk,344,L,false,118,1,1,0,1,1,
0uk,345,L,false,333,1,1,1,1,1,
0uk,346,L,true,31,2,0,1,1,1,
0uk,347,L,false,406,2,1,0,1,1,
0uk,348,L,false,119,1,1,0,1,1,
0uk,349,L,true,139,1,1,0,0,0,
0uk,350,L,false,387,1,1,0,1,1,
0uk,351,L,false,103,2,0,0,1,1,
0uk,352,L,true,214,1,0,0,1,0,
0uk,353,L,false,319,1,1,0,0,1,
0uk,354,L,true,36,1,1,0,1,0,
0uk,355,L,true,53,1,1,0,1,1,
0uk,356,L,true,277,1,1,1,0,0,
0uk,357,L,true,270,1,1,1,0,1,
0uk,358,L,false,284,2,1,0,1,0,
0uk,359,L,true,107,2,0,1,1,1,
0uk,360,L,false,80,2,0,0,1,1,
brk,brk,brk,brk,brk,brk,brk,brk,brk,brk,
0uk,361,L,false,903,2,0,1,1,1,
0uk,362,L,true,158,2,1,1,1,1,
0uk,363,L,false,12,2,0,0,1,0,
0uk,364,L,true,339,2,0,0,0,1,
0uk,365,L,false,90,2,1,1,1,1,
0uk,366,L,true,416,1,1,0,1,1,
0uk,367,L,true,760,2,0,1,0,1,
0uk,368,L,false,327,1,0,1,0,1,
0uk,369,L,false,293,2,0,1,0,1,
0uk,370,L,false,290,2,0,1,0,1,
0uk,371,L,false,131,1,1,1,0,1,
0uk,372,L,true,285,1,1,1,1,0,
0uk,373,L,true,94,1,1,1,1,0,
0uk,374,L,false,48,2,0,1,1,1,
0uk,375,L,false,588,1,0,0,0,1,
0uk,376,L,true,360,2,0,1,1,0,
0uk,377,L,true,1093,1,1,0,1,0,
0uk,378,L,false,425,1,0,1,1,1,
0uk,379,L,true,514,2,0,1,0,1,
0uk,380,L,false,164,1,0,1,1,0,
0uk,381,L,false,418,2,0,0,0,1,
0uk,382,L,false,72,1,1,1,1,1,
0uk,383,L,true,175,2,0,1,1,1,
0uk,384,L,false,279,2,0,1,0,1,
0uk,385,L,true,37,2,1,0,1,1,
0uk,386,L,false,120,1,1,0,1,1,
0uk,387,L,false,73,1,0,1,0,1,
0uk,388,L,false,1198,2,1,1,1,0,
0uk,389,L,false,483,2,0,1,1,1,
0uk,390,L,true,303,2,0,1,1,1,
0uk,391,L,true,1398,1,1,0,0,1,
0uk,392,L,true,823,1,1,0,1,0,
0uk,393,L,true,1657,1,1,0,1,1,
0uk,394,L,false,2300,2,1,0,1,0,
0uk,395,L,false,52,1,0,1,1,1,
0uk,396,L,false,1119,2,0,1,1,0,
0uk,397,L,false,1534,1,1,0,0,1,
0uk,398,L,false,120,2,0,1,1,1,
0uk,399,L,true,134,1,1,0,1,1,
0uk,400,L,false,347,1,0,1,0,0,
0uk,401,L,true,134,1,1,1,0,0,
0uk,402,L,true,439,1,0,1,0,1,
0uk,403,L,true,200,1,0,1,1,1,
0uk,404,L,true,184,1,1,0,1,1,
0uk,405,L,true,182,2,0,1,1,1,
0uk,406,L,false,18,1,0,1,1,1,
0uk,407,L,true,687,1,0,0,0,0,
0uk,408,L,false,284,1,0,1,1,1,
0uk,409,L,false,328,2,1,0,1,0,
0uk,410,L,false,126,1,0,1,0,1,
0uk,411,L,false,301,2,0,0,1,0,
0uk,412,L,false,393,2,1,1,1,0,
0uk,413,L,false,140,1,0,0,1,1,
0uk,414,L,false,369,2,1,0,0,1,
0uk,415,L,false,453,1,0,0,1,0,
0uk,416,L,false,45,2,0,0,1,1,
0uk,417,L,false,105,1,1,1,1,1,
0uk,418,L,false,267,2,0,1,1,0,
0uk,419,L,false,433,1,0,1,1,1,
0uk,420,L,true,270,1,1,1,1,0,
0uk,421,L,false,301,2,1,1,0,1,
0uk,422,L,true,459,2,1,0,1,1,
0uk,423,L,true,7,1,1,1,1,1,
0uk,424,L,false,501,2,0,0,1,0,
0uk,425,L,true,624,1,0,1,0,1,
0uk,426,L,false,90,1,1,1,1,1,
0uk,427,L,true,59,1,1,0,1,1,
0uk,428,L,true,240,2,0,1,1,1,
0uk,429,L,true,903,2,0,0,1,1,
0uk,430,L,true,896,1,1,1,1,1,
0uk,431,L,false,318,2,1,0,1,1,
0uk,432,L,true,86,2,0,1,1,1,
0uk,433,L,true,237,1,0,0,0,0,
0uk,434,L,false,35,2,0,0,1,1,
0uk,435,L,false,462,1,1,0,1,1,
0uk,436,L,true,31,2,1,1,1,1,
0uk,437,L,true,350,1,1,1,1,0,
0uk,438,L,true,31,1,1,1,0,1,
0uk,439,L,true,206,2,0,1,1,1,
0uk,440,L,true,40,1,0,0,1,1,
0uk,441,L,false,85,2,1,1,1,1,
0uk,442,L,true,326,2,0,0,0,0,
0uk,443,L,false,364,1,1,1,0,1,
0uk,444,L,true,664,1,0,1,0,1,
0uk,445,L,true,1315,2,1,1,0,0,
0uk,446,L,true,276,1,0,1,1,1,
0uk,447,L,true,460,1,1,1,1,1,
0uk,448,L,false,575,1,1,0,1,1,
0uk,449,L,false,486,2,0,0,1,1,
0uk,450,L,true,167,2,1,1,1,1,
subID,trialNum,cntBalance,correct,rt,winner,p1conf,p2conf,p1rslt,p2rslt,
aya,1,L,true,2311,2,0,1,0,1,
aya,2,L,false,2132,1,1,0,0,1,
aya,3,L,false,1577,1,1,1,0,0,
aya,4,L,true,1491,1,1,0,1,1,
aya,5,L,false,2575,2,1,0,0,1,
aya,6,L,true,2260,2,1,1,1,1,
aya,7,L,true,2326,2,0,0,1,1,
aya,8,L,true,1125,1,1,1,1,1,
aya,9,L,false,1721,2,1,1,1,0,
aya,10,L,true,1598,1,1,0,1,0,
aya,11,L,true,1050,1,1,1,1,1,
aya,12,L,true,1467,2,0,1,1,1,
aya,13,L,true,1152,1,0,0,0,1,
aya,14,L,true,919,1,1,1,1,1,
aya,15,L,true,1297,2,0,0,1,1,
aya,16,L,true,1005,1,1,1,1,1,
aya,17,L,true,813,1,1,1,1,1,
aya,18,L,true,871,2,0,1,1,1,
aya,19,L,true,878,1,0,0,0,1,
aya,20,L,true,1006,2,1,0,1,1,
aya,21,L,false,1060,1,0,0,0,1,
aya,22,L,true,1016,1,1,1,1,1,
aya,23,L,true,792,1,1,1,1,1,
aya,24,L,false,788,2,1,1,1,0,
aya,25,L,true,1176,1,1,1,1,1,
aya,26,L,true,812,2,0,0,1,1,
aya,27,L,false,335,2,1,0,0,1,
aya,28,L,false,1015,2,1,1,0,1,
aya,29,L,true,899,1,0,0,1,1,
aya,30,L,true,831,2,1,0,0,1,
aya,31,L,false,1325,2,1,0,1,1,
aya,32,L,false,1904,1,0,0,1,1,
aya,33,L,true,911,1,0,0,1,1,
aya,34,L,true,1159,2,1,1,1,0,
aya,35,L,true,630,2,0,0,0,1,
aya,36,L,false,685,2,1,1,0,1,
aya,37,L,true,309,2,0,1,0,1,
aya,38,L,true,793,2,1,0,1,1,
aya,39,L,true,2199,2,0,0,0,1,
aya,40,L,true,1166,2,0,1,1,1,
aya,41,L,false,1166,1,0,1,1,0,
aya,42,L,true,989,1,1,0,0,1,
aya,43,L,true,658,1,1,1,1,1,
aya,44,L,true,755,2,0,1,0,1,
aya,45,L,true,890,1,0,1,1,0,
aya,46,L,false,944,1,1,1,1,0,
aya,47,L,true,371,1,1,0,1,1,
aya,48,L,false,72,1,1,0,1,0,
aya,49,L,true,1007,1,1,1,0,1,
aya,50,L,true,1183,2,1,0,1,0,
aya,51,L,true,1183,1,1,0,1,0,
aya,52,L,false,1004,1,1,1,0,1,
aya,53,L,true,1129,1,0,0,1,1,
aya,54,L,false,2069,1,1,0,1,1,
aya,55,L,true,1048,2,1,1,1,1,
aya,56,L,false,1447,1,0,1,1,1,
aya,57,L,false,308,2,0,0,1,1,
aya,58,L,false,742,2,0,0,0,0,
aya,59,L,false,1039,1,1,0,1,0,
aya,60,L,false,1211,2,1,0,0,1,
aya,61,L,false,616,2,0,0,0,0,
aya,62,L,false,1047,2,0,0,1,1,
aya,63,L,true,958,1,0,0,1,1,
aya,64,L,true,977,1,1,1,1,1,
aya,65,L,true,751,1,0,0,1,1,
aya,66,L,true,775,1,1,1,1,1,
aya,67,L,true,1302,1,1,0,1,0,
aya,68,L,true,908,2,0,1,0,1,
aya,69,L,false,950,2,0,1,0,0,
aya,70,L,false,2214,1,0,0,0,1,
aya,71,L,true,710,1,0,1,1,1,
aya,72,L,true,767,1,0,0,0,1,
aya,73,L,true,791,2,0,0,1,1,
aya,74,L,true,858,1,1,1,1,0,
aya,75,L,false,1123,1,1,1,1,1,
aya,76,L,true,821,2,0,1,1,0,
aya,77,L,true,950,2,1,1,1,0,
aya,78,L,true,869,1,1,0,1,1,
aya,79,L,false,751,2,0,0,0,0,
aya,80,L,true,2334,2,0,1,0,1,
aya,81,L,true,1698,1,0,0,1,1,
aya,82,L,true,2918,1,0,0,0,1,
aya,83,L,true,1333,1,0,0,1,1,
aya,84,L,false,2217,2,1,0,1,0,
aya,85,L,true,1338,2,0,0,1,1,
aya,86,L,true,1670,1,1,0,1,1,
aya,87,L,true,2490,1,0,0,1,0,
aya,88,L,true,2142,2,1,0,1,1,
aya,89,L,true,1156,1,1,0,1,1,
aya,90,L,true,1190,1,1,1,1,1,
aya,91,L,true,987,1,1,0,1,1,
aya,92,L,true,1167,2,1,1,1,1,
aya,93,L,true,791,1,1,0,1,1,
aya,94,L,true,2955,1,0,0,1,0,
aya,95,L,true,1768,2,0,0,1,0,
aya,96,L,true,1415,2,0,0,1,1,
aya,97,L,true,1932,1,0,0,1,0,
aya,98,L,false,1710,1,1,1,1,0,
aya,99,L,false,1344,2,0,0,0,1,
aya,100,L,true,1182,1,1,1,1,1,
brk,brk,brk,brk,brk,brk,brk,brk,brk,brk,
aya,101,L,false,2862,2,0,1,0,0,
aya,102,L,true,4442,1,1,1,1,0,
aya,103,L,true,2236,1,1,0,1,0,
aya,104,L,true,11013,1,0,0,1,1,
aya,105,L,true,1517,2,1,0,1,1,
aya,106,L,false,605,2,1,0,0,0,
aya,107,L,false,2409,1,0,1,0,1,
aya,108,L,true,948,2,1,1,1,0,
aya,109,L,true,2003,2,0,0,1,0,
aya,110,L,true,1399,2,1,1,1,1,
aya,111,L,true,882,1,1,0,1,1,
aya,112,L,false,1387,1,1,0,0,0,
aya,113,L,true,1472,2,0,1,1,1,
aya,114,L,true,1686,1,0,1,1,0,
aya,115,L,false,1256,1,0,0,0,1,
aya,116,L,true,1066,2,0,0,1,1,
aya,117,L,true,1138,1,1,0,1,1,
aya,118,L,true,869,1,1,1,1,0,
aya,119,L,true,558,2,1,1,1,1,
aya,120,L,true,697,1,1,1,1,0,
aya,121,L,true,668,1,1,0,1,0,
aya,122,L,true,616,1,1,0,1,0,
aya,123,L,true,639,2,1,0,1,0,
aya,124,L,true,642,1,1,0,1,1,
aya,125,L,true,939,2,1,0,1,1,
aya,126,L,true,519,1,1,1,1,1,
aya,127,L,true,679,1,1,1,1,1,
aya,128,L,true,592,2,1,1,1,1,
aya,129,L,true,515,1,0,0,1,0,
aya,130,L,true,638,2,0,1,1,0,
aya,131,L,false,608,1,0,1,0,1,
aya,132,L,false,732,1,1,1,0,0,
aya,133,L,false,621,1,1,1,0,1,
aya,134,L,true,518,2,1,0,1,1,
aya,135,L,false,1426,2,1,1,0,1,
aya,136,L,true,1300,1,1,0,1,1,
aya,137,L,false,1483,1,0,1,0,0,
aya,138,L,true,626,1,1,0,1,1,
aya,139,L,true,544,2,1,1,1,1,
aya,140,L,false,496,2,0,0,0,1,
aya,141,L,true,703,2,0,1,1,1,
aya,142,L,false,1017,1,1,0,0,1,
aya,143,L,true,574,1,1,1,1,1,
aya,144,L,true,724,1,1,1,1,1,
aya,145,L,false,599,2,0,1,0,0,
aya,146,L,false,650,2,0,0,0,1,
aya,147,L,true,616,2,0,0,1,0,
aya,148,L,false,703,1,0,1,0,1,
aya,149,L,true,88,1,1,0,1,1,
aya,150,L,true,3761,2,1,1,1,0,
aya,151,L,false,1060,1,0,1,1,0,
aya,152,L,true,1175,2,0,0,1,1,
aya,153,L,true,2440,2,1,0,1,1,
aya,154,L,true,2685,1,1,0,1,0,
aya,155,L,true,712,2,1,0,1,0,
aya,156,L,true,1265,1,0,0,1,1,
aya,157,L,false,1901,1,0,0,0,0,
aya,158,L,false,1192,1,1,0,0,1,
aya,159,L,true,920,1,1,1,1,1,
aya,160,L,true,784,2,1,1,0,1,
aya,161,L,true,706,1,1,1,1,1,
aya,162,L,false,1157,2,0,1,0,1,
aya,163,L,false,718,2,1,0,0,1,
aya,164,L,false,696,1,1,0,1,0,
aya,165,L,true,764,1,1,1,1,1,
aya,166,L,true,50,1,0,1,0,0,
aya,167,L,false,908,1,1,0,0,0,
aya,168,L,true,967,1,0,0,1,1,
aya,169,L,false,1999,2,1,0,1,1,
aya,170,L,false,1084,2,1,1,1,0,
aya,171,L,true,905,2,1,1,1,1,
aya,172,L,true,934,2,0,0,1,1,
aya,173,L,true,1012,2,1,0,1,1,
aya,174,L,true,1448,2,0,1,0,1,
aya,175,L,false,729,2,0,0,0,1,
aya,176,L,false,1200,1,0,0,0,1,
aya,177,L,false,608,1,0,1,0,0,
aya,178,L,false,703,2,0,1,0,0,
aya,179,L,true,956,1,1,0,1,0,
aya,180,L,true,659,1,1,1,1,1,
aya,181,L,true,1008,1,1,0,1,1,
aya,182,L,true,1303,1,1,1,1,0,
aya,183,L,true,565,1,1,0,1,1,
aya,184,L,false,795,2,0,1,0,0,
aya,185,L,false,60,2,0,1,0,0,
aya,186,L,true,1001,2,1,0,1,1,
aya,187,L,false,863,1,0,0,0,1,
aya,188,L,true,962,2,1,1,1,1,
aya,189,L,true,555,2,1,1,1,1,
aya,190,L,true,670,1,0,0,1,1,
aya,191,L,true,676,1,1,0,1,1,
aya,192,L,false,675,2,0,0,1,1,
aya,193,L,true,722,2,0,0,1,1,
aya,194,L,true,646,1,1,0,1,1,
aya,195,L,true,632,1,0,1,1,1,
aya,196,L,false,1225,2,0,0,0,1,
aya,197,L,true,625,1,0,1,1,1,
aya,198,L,true,685,1,1,0,1,1,
aya,199,L,true,1120,2,0,1,1,1,
aya,200,L,true,913,1,1,1,1,0,
brk,brk,brk,brk,brk,brk,brk,brk,brk,brk,
aya,201,L,true,1482,2,1,0,1,1,
aya,202,L,false,1080,1,0,0,1,0,
aya,203,L,true,545,2,0,1,1,1,
aya,204,L,false,757,1,0,0,0,1,
aya,205,L,true,758,2,1,1,1,1,
aya,206,L,true,702,1,0,0,1,1,
aya,207,L,true,1248,2,0,1,0,1,
aya,208,L,false,5888,2,0,0,0,0,
aya,209,L,true,3029,2,1,0,1,1,
aya,210,L,true,662,1,0,1,1,1,
aya,211,L,true,942,1,0,0,1,1,
aya,212,L,false,767,1,0,1,0,1,
aya,213,L,true,744,2,0,0,1,1,
aya,214,L,true,1161,2,1,1,1,0,
aya,215,L,true,593,2,0,1,1,1,
aya,216,L,true,560,2,1,1,1,0,
aya,217,L,true,731,2,0,1,1,1,
aya,218,L,true,1015,2,0,1,1,1,
aya,219,L,true,1235,1,1,1,1,1,
aya,220,L,true,482,2,1,0,1,0,
aya,221,L,true,741,2,0,0,1,1,
aya,222,L,false,664,1,0,1,0,0,
aya,223,L,true,951,2,0,0,1,1,
aya,224,L,false,1013,1,1,1,0,1,
aya,225,L,true,1352,1,0,0,1,1,
aya,226,L,true,1617,1,0,1,0,1,
aya,227,L,false,1136,2,0,1,0,1,
aya,228,L,true,584,2,0,1,1,1,
aya,229,L,false,487,2,1,0,0,0,
aya,230,L,false,95,1,0,1,1,0,
aya,231,L,true,260,2,1,0,1,1,
aya,232,L,true,472,1,1,0,1,1,
aya,233,L,false,430,2,1,0,1,1,
aya,234,L,true,889,2,1,1,1,0,
aya,235,L,false,696,2,1,1,0,1,
aya,236,L,false,1056,1,0,1,1,0,
aya,237,L,true,692,2,1,0,1,1,
aya,238,L,true,571,2,0,0,1,0,
aya,239,L,true,680,1,1,1,1,1,
aya,240,L,true,536,2,0,1,1,1,
aya,241,L,true,584,1,1,0,1,1,
aya,242,L,false,608,1,1,0,0,1,
aya,243,L,true,648,1,1,0,1,1,
aya,244,L,true,448,2,1,1,1,0,
aya,245,L,true,1046,1,1,1,1,1,
aya,246,L,true,600,2,0,0,1,1,
aya,247,L,true,773,1,0,1,1,1,
aya,248,L,false,756,2,0,1,0,1,
aya,249,L,true,1412,2,0,0,1,1,
aya,250,L,true,777,2,1,0,1,1,
aya,251,L,true,1570,2,0,1,1,1,
aya,252,L,false,1624,1,1,1,0,1,
aya,253,L,true,1719,2,0,0,1,1,
aya,254,L,true,2168,1,1,1,0,1,
aya,255,L,true,1032,1,1,0,1,1,
aya,256,L,true,1685,2,0,1,1,1,
aya,257,L,true,1097,1,1,1,1,1,
aya,258,L,true,1263,2,0,0,1,1,
aya,259,L,true,2168,1,1,1,1,0,
aya,260,L,true,1095,2,0,0,1,1,
aya,261,L,false,1600,2,1,0,1,0,
aya,262,L,true,1675,1,1,1,1,1,
aya,263,L,false,3732,1,0,0,0,1,
aya,264,L,true,1502,2,0,1,0,1,
aya,265,L,true,1308,1,0,1,0,1,
aya,266,L,false,858,2,0,1,1,0,
aya,267,L,false,940,2,0,1,0,0,
aya,268,L,true,966,1,1,1,1,1,
aya,269,L,true,1334,2,0,0,1,1,
aya,270,L,true,1688,2,1,0,1,0,
aya,271,L,false,2433,2,0,1,1,0,
aya,272,L,true,2144,1,0,0,1,0,
aya,273,L,false,2061,1,0,0,0,1,
aya,274,L,true,689,1,0,0,1,1,
aya,275,L,true,1621,1,1,0,1,1,
aya,276,L,true,848,2,0,0,0,1,
aya,277,L,false,1023,1,0,1,1,0,
aya,278,L,true,1135,2,0,1,0,1,
aya,279,L,false,1328,2,1,1,1,0,
aya,280,L,false,332,2,1,1,1,1,
aya,281,L,true,983,2,1,1,1,1,
aya,282,L,true,675,2,1,0,1,1,
aya,283,L,false,696,2,0,1,0,0,
aya,284,L,true,1248,2,0,1,1,0,
aya,285,L,false,745,2,0,1,0,0,
aya,286,L,true,1328,2,1,0,1,0,
aya,287,L,false,863,1,1,1,1,0,
aya,288,L,true,600,2,0,1,1,0,
aya,289,L,true,665,2,1,1,1,1,
aya,290,L,true,868,2,0,1,0,1,
aya,291,L,false,888,1,1,0,1,0,
aya,292,L,true,724,1,1,1,1,1,
aya,293,L,false,1182,1,0,1,0,1,
aya,294,L,true,503,2,0,1,1,0,
aya,295,L,false,756,1,1,0,0,1,
aya,296,L,true,427,1,1,0,1,0,
aya,297,L,false,1073,2,0,0,0,1,
aya,298,L,false,845,1,0,0,1,0,
aya,299,L,true,717,1,0,1,1,1,
aya,300,L,true,821,2,1,1,0,1,
brk,brk,brk,brk,brk,brk,brk,brk,brk,brk,
aya,301,L,true,2636,2,0,1,1,0,
aya,302,L,true,733,2,0,1,0,1,
aya,303,L,true,903,2,1,0,1,1,
aya,304,L,false,1017,1,0,1,1,0,
aya,305,L,true,1400,1,1,1,1,0,
aya,306,L,false,615,1,0,0,1,0,
aya,307,L,true,582,2,0,1,1,1,
aya,308,L,false,1110,2,0,0,1,0,
aya,309,L,true,723,1,1,1,1,1,
aya,310,L,false,1542,2,0,1,0,1,
aya,311,L,false,1027,1,0,0,0,1,
aya,312,L,true,1080,2,0,0,0,1,
aya,313,L,false,710,2,0,1,0,0,
aya,314,L,true,848,1,0,1,1,1,
aya,315,L,true,566,1,0,1,1,1,
aya,316,L,true,502,1,0,0,1,1,
aya,317,L,true,623,2,0,0,1,1,
aya,318,L,true,674,1,1,1,1,1,
aya,319,L,false,1485,1,0,0,0,1,
aya,320,L,true,513,1,0,0,1,1,
aya,321,L,true,1019,2,1,1,1,1,
aya,322,L,true,558,2,1,1,1,1,
aya,323,L,true,489,1,1,0,1,1,
aya,324,L,false,806,1,1,0,1,0,
aya,325,L,false,791,1,0,1,0,1,
aya,326,L,false,709,1,0,1,0,1,
aya,327,L,true,584,1,1,1,1,1,
aya,328,L,true,616,2,1,0,1,1,
aya,329,L,true,553,2,0,1,1,1,
aya,330,L,true,458,1,1,1,1,1,
aya,331,L,true,649,2,1,0,1,1,
aya,332,L,false,1284,1,0,1,0,1,
aya,333,L,true,1558,2,0,0,1,0,
aya,334,L,false,431,2,0,0,0,1,
aya,335,L,false,597,1,1,1,0,1,
aya,336,L,true,660,1,1,1,1,1,
aya,337,L,true,593,1,0,1,1,1,
aya,338,L,true,847,1,0,1,1,0,
aya,339,L,false,693,2,0,1,0,1,
aya,340,L,true,735,1,1,1,1,1,
aya,341,L,false,1151,1,0,0,0,1,
aya,342,L,true,693,1,0,0,1,1,
aya,343,L,false,632,2,0,0,0,0,
aya,344,L,false,2142,1,1,1,1,0,
aya,345,L,true,1318,2,0,1,1,1,
aya,346,L,true,1535,1,1,0,1,1,
aya,347,L,true,1368,1,0,1,1,1,
aya,348,L,true,1119,2,1,0,1,1,
aya,349,L,false,1275,2,0,0,1,1,
aya,350,L,true,1426,2,0,1,0,1,
aya,351,L,false,1645,1,0,0,1,0,
aya,352,L,false,1015,1,0,1,1,0,
aya,353,L,true,710,1,0,1,1,0,
aya,354,L,true,607,1,0,1,1,1,
aya,355,L,true,1412,2,1,0,1,1,
aya,356,L,true,616,1,0,0,1,1,
aya,357,L,true,592,2,1,0,1,1,
aya,358,L,true,1065,2,0,0,0,1,
aya,359,L,true,683,2,0,1,1,0,
aya,360,L,true,599,2,0,0,1,1,
aya,361,L,true,542,1,1,0,1,1,
aya,362,L,true,679,2,0,1,1,0,
aya,363,L,true,581,2,1,0,1,1,
aya,364,L,true,1117,1,0,0,1,1,
aya,365,L,true,711,2,0,0,1,1,
aya,366,L,false,915,1,1,1,0,1,
aya,367,L,true,540,2,0,0,1,0,
aya,368,L,true,559,2,1,1,1,1,
aya,369,L,false,519,1,1,1,0,0,
aya,370,L,false,648,2,0,0,0,0,
aya,371,L,false,632,1,0,0,0,0,
aya,372,L,true,854,1,1,1,1,0,
aya,373,L,true,663,1,0,1,1,1,
aya,374,L,true,550,1,1,1,1,1,
aya,375,L,true,1049,2,1,0,1,0,
aya,376,L,false,742,1,0,0,1,0,
aya,377,L,true,583,2,0,0,1,1,
aya,378,L,true,618,1,1,1,1,1,
aya,379,L,true,806,2,0,0,1,0,
aya,380,L,true,917,1,1,0,1,0,
aya,381,L,false,990,1,0,1,0,1,
aya,382,L,true,550,1,1,0,1,1,
aya,383,L,true,616,1,1,0,1,1,
aya,384,L,false,744,2,1,0,0,0,
aya,385,L,true,875,2,1,0,1,1,
aya,386,L,true,602,1,0,1,1,1,
aya,387,L,true,1158,1,1,1,1,1,
aya,388,L,false,1199,1,1,0,0,0,
aya,389,L,true,1108,2,1,0,1,0,
aya,390,L,false,598,2,0,1,0,0,
aya,391,L,false,625,1,0,0,0,1,
aya,392,L,true,632,2,1,1,1,0,
aya,393,L,true,690,1,1,1,1,0,
aya,394,L,true,544,2,1,1,1,1,
aya,395,L,false,1057,1,0,1,0,1,
aya,396,L,true,534,2,1,0,1,1,
aya,397,L,true,727,1,1,1,1,1,
aya,398,L,true,661,1,0,1,1,1,
aya,399,L,false,734,2,0,1,0,1,
aya,400,L,false,696,2,0,1,0,1,
brk,brk,brk,brk,brk,brk,brk,brk,brk,brk,
aya,401,L,true,1991,1,1,0,1,1,
aya,402,L,true,1084,1,1,1,1,0,
aya,403,L,true,594,2,1,0,1,0,
aya,404,L,false,641,1,0,1,0,1,
aya,405,L,true,550,2,0,1,1,1,
aya,406,L,false,782,2,0,0,0,1,
aya,407,L,false,613,1,1,1,0,1,
aya,408,L,true,701,2,0,1,1,0,
aya,409,L,true,582,2,0,0,1,0,
aya,410,L,false,640,2,0,1,0,1,
aya,411,L,true,506,1,0,1,1,0,
aya,412,L,false,587,1,0,1,0,1,
aya,413,L,true,511,1,1,0,1,0,
aya,414,L,true,517,2,1,0,1,1,
aya,415,L,true,546,2,1,1,1,1,
aya,416,L,false,515,1,1,1,0,0,
aya,417,L,true,493,2,1,0,1,1,
aya,418,L,true,490,2,0,0,1,1,
aya,419,L,false,1016,2,0,0,0,1,
aya,420,L,false,587,2,0,1,0,0,
aya,421,L,true,979,1,0,0,1,1,
aya,422,L,false,771,1,0,0,0,0,
aya,423,L,true,1068,1,0,0,1,1,
aya,424,L,true,727,1,1,1,1,1,
aya,425,L,true,512,1,0,1,1,1,
aya,426,L,false,494,2,0,1,0,1,
aya,427,L,true,452,1,0,0,1,1,
aya,428,L,false,518,2,0,1,0,0,
aya,429,L,true,464,1,1,1,1,1,
aya,430,L,true,799,1,1,1,1,0,
aya,431,L,false,669,2,0,1,0,1,
aya,432,L,true,711,2,0,1,1,1,
aya,433,L,true,858,2,1,1,0,1,
aya,434,L,true,554,2,1,1,1,1,
aya,435,L,true,607,1,1,1,1,1,
aya,436,L,true,597,2,1,0,1,1,
aya,437,L,false,945,1,1,0,1,0,
aya,438,L,false,576,1,1,0,0,1,
aya,439,L,true,636,2,0,1,1,1,
aya,440,L,true,688,2,1,0,1,1,
aya,441,L,true,686,1,0,1,1,1,
aya,442,L,false,600,2,1,1,0,1,
aya,443,L,true,739,2,1,1,1,1,
aya,444,L,false,949,2,1,0,0,1,
aya,445,L,true,708,2,1,0,1,0,
aya,446,L,false,752,2,1,0,0,1,
aya,447,L,true,778,1,1,1,1,1,
aya,448,L,true,658,2,0,1,1,1,
aya,449,L,true,557,1,0,1,1,1,
aya,450,L,true,550,2,0,0,1,1,
aya,451,L,true,496,1,0,1,1,1,
aya,452,L,false,548,2,0,1,0,1,
aya,453,L,true,485,2,0,1,1,1,
aya,454,L,true,775,2,1,0,1,0,
aya,455,L,false,652,2,0,0,0,1,
aya,456,L,true,1622,1,1,1,1,0,
aya,457,L,true,596,2,0,1,1,1,
aya,458,L,true,1276,1,1,0,1,0,
aya,459,L,true,519,2,1,0,1,0,
aya,460,L,true,463,2,1,0,1,1,
aya,461,L,true,598,1,1,1,1,1,
aya,462,L,false,542,1,0,0,0,1,
aya,463,L,true,551,1,1,1,1,1,
aya,464,L,true,460,1,1,0,1,1,
aya,465,L,false,472,1,1,1,0,1,
aya,466,L,true,476,2,1,1,1,1,
aya,467,L,true,447,2,0,1,1,1,
aya,468,L,false,559,1,1,1,0,0,
aya,469,L,true,541,2,1,0,1,1,
aya,470,L,true,611,2,1,1,1,1,
aya,471,L,true,571,1,1,0,1,1,
aya,472,L,true,440,1,1,1,1,1,
aya,473,L,true,518,2,0,1,1,1,
aya,474,L,false,529,2,0,1,0,0,
aya,475,L,true,541,2,1,1,1,1,
aya,476,L,true,659,2,1,1,1,1,
aya,477,L,true,582,1,1,1,1,1,
aya,478,L,true,570,2,0,0,1,0,
aya,479,L,true,485,2,0,0,1,1,
aya,480,L,true,738,1,0,0,1,1,
aya,481,L,true,511,2,0,1,1,1,
aya,482,L,true,469,1,0,1,1,0,
aya,483,L,true,503,1,0,1,1,1,
aya,484,L,true,1182,1,1,0,1,0,
aya,485,L,true,1014,1,1,0,1,0,
aya,486,L,true,1204,2,0,0,1,1,
aya,487,L,true,665,2,0,1,1,0,
aya,488,L,true,631,1,1,0,1,1,
aya,489,L,false,803,2,0,0,0,1,
aya,490,L,false,1295,1,1,1,0,1,
aya,491,L,false,1984,2,0,0,0,0,
aya,492,L,true,2584,1,1,0,1,1,
aya,493,L,true,1858,1,1,1,1,0,
aya,494,L,true,1709,2,0,0,1,1,
aya,495,L,true,716,1,0,1,0,0,
aya,496,L,false,2264,1,1,0,0,0,
aya,497,L,false,2252,1,0,0,0,0,
aya,498,L,false,1045,1,0,1,0,1,
aya,499,L,true,894,2,1,0,1,1,
aya,500,L,true,1956,1,1,1,1,1,
subID,trialNum,cntBalance,correct,rt,winner,p1conf,p2conf,p1rslt,p2rslt,
ga4,1,L,true,5020,1,1,1,1,1,
ga4,2,L,true,5205,2,0,1,0,0,
ga4,3,L,true,6559,2,0,1,0,0,
ga4,4,L,true,5173,1,1,0,1,1,
ga4,5,L,true,11099,2,0,1,1,1,
ga4,6,L,true,3141,1,1,0,1,1,
ga4,7,L,true,7442,1,0,1,0,1,
ga4,8,L,true,6502,1,0,0,1,0,
ga4,9,L,true,9374,2,0,1,0,1,
ga4,10,L,true,2123,1,1,0,1,1,
ga4,11,L,false,3423,1,0,1,1,0,
ga4,12,L,true,3855,2,1,0,1,0,
ga4,13,L,true,3561,2,1,0,1,1,
ga4,14,L,true,6972,2,1,0,1,0,
ga4,15,L,true,5759,1,1,0,1,1,
ga4,16,L,false,8046,1,0,0,0,1,
ga4,17,L,false,5438,2,1,0,0,1,
ga4,18,L,true,2950,2,1,1,1,1,
ga4,19,L,true,2487,2,0,0,1,1,
ga4,20,L,true,5303,2,1,1,1,0,
ga4,21,L,true,4735,1,1,1,1,1,
ga4,22,L,true,1637,1,1,0,1,1,
ga4,23,L,false,2859,2,1,0,0,1,
ga4,24,L,false,3607,2,1,1,0,1,
ga4,25,L,true,3232,1,1,1,1,1,
ga4,26,L,false,1790,1,0,1,0,0,
ga4,27,L,true,1548,1,1,1,1,1,
ga4,28,L,true,2428,2,0,1,1,1,
ga4,29,L,false,3766,1,1,0,0,1,
ga4,30,L,true,3174,2,1,0,1,1,
ga4,31,L,true,1937,2,1,1,1,1,
ga4,32,L,true,1419,2,1,1,1,1,
ga4,33,L,true,1943,1,1,1,1,1,
ga4,34,L,true,1954,1,1,0,1,1,
ga4,35,L,true,1910,1,1,0,1,0,
ga4,36,L,true,1719,1,1,0,1,1,
ga4,37,L,false,3301,1,0,1,0,0,
ga4,38,L,true,5829,2,1,0,1,1,
ga4,39,L,true,2361,1,1,0,1,1,
ga4,40,L,true,1336,1,0,1,1,1,
ga4,41,L,true,3519,2,0,0,1,0,
ga4,42,L,true,11371,1,0,1,1,1,
ga4,43,L,false,1275,1,0,0,0,0,
ga4,44,L,true,2275,1,0,1,1,1,
ga4,45,L,true,1118,2,1,1,1,1,
ga4,46,L,true,1079,1,1,1,1,1,
ga4,47,L,true,2007,2,1,0,1,0,
ga4,48,L,true,5249,1,1,1,1,0,
ga4,49,L,true,1863,1,1,0,1,1,
ga4,50,L,true,7213,1,0,0,1,1,
ga4,51,L,true,1375,1,1,1,1,1,
ga4,52,L,true,5604,2,0,0,1,1,
ga4,53,L,true,4238,1,0,0,1,0,
ga4,54,L,false,2936,1,1,1,0,1,
ga4,55,L,true,5143,2,1,0,1,0,
ga4,56,L,true,7102,1,1,0,1,1,
ga4,57,L,true,1667,1,0,1,1,1,
ga4,58,L,true,1140,1,1,0,1,1,
ga4,59,L,true,1193,2,1,0,1,0,
ga4,60,L,true,3220,2,0,1,0,1,
ga4,61,L,false,5088,1,0,0,1,0,
ga4,62,L,true,1887,1,0,0,1,1,
ga4,63,L,true,3560,2,1,1,1,1,
ga4,64,L,true,1722,1,1,1,1,1,
ga4,65,L,true,3098,1,0,0,1,0,
ga4,66,L,true,5036,1,1,1,1,0,
ga4,67,L,true,1741,2,1,1,1,0,
ga4,68,L,true,3937,2,1,1,1,1,
ga4,69,L,true,1134,1,1,1,1,1,
ga4,70,L,true,2375,2,1,0,1,1,
ga4,71,L,false,9996,2,0,1,1,0,
ga4,72,L,true,2784,2,0,1,0,1,
ga4,73,L,true,1428,2,1,1,1,1,
ga4,74,L,true,1476,2,1,0,1,1,
ga4,75,L,false,2125,1,1,0,0,1,
ga4,76,L,true,3799,2,0,1,1,1,
ga4,77,L,true,3332,1,0,0,1,0,
ga4,78,L,false,2091,2,0,1,0,0,
ga4,79,L,true,1883,1,0,1,1,1,
ga4,80,L,false,3822,1,0,1,0,0,
ga4,81,L,true,2981,2,1,1,1,1,
ga4,82,L,true,9447,2,1,1,1,0,
ga4,83,L,true,3422,2,0,0,1,0,
ga4,84,L,true,2133,1,0,1,1,1,
ga4,85,L,true,1150,1,1,1,1,1,
ga4,86,L,true,1790,2,0,1,0,1,
ga4,87,L,true,1342,1,1,0,1,0,
ga4,88,L,false,2383,1,0,0,0,1,
ga4,89,L,true,1669,2,1,0,1,1,
ga4,90,L,true,1457,2,1,0,1,1,
brk,brk,brk,brk,brk,brk,brk,brk,brk,brk,
ga4,91,L,false,6240,2,0,0,0,0,
ga4,92,L,true,2074,2,0,0,1,1,
ga4,93,L,false,4703,1,1,1,1,0,
ga4,94,L,true,2082,1,1,0,1,0,
ga4,95,L,true,1216,2,1,1,1,1,
ga4,96,L,true,1468,2,0,1,1,1,
ga4,97,L,false,1135,1,0,1,0,0,
ga4,98,L,false,2808,1,0,1,1,0,
ga4,99,L,true,4184,1,0,0,1,1,
ga4,100,L,true,1183,1,0,1,1,1,
ga4,101,L,true,3450,1,1,0,1,1,
ga4,102,L,false,7364,2,0,1,1,0,
ga4,103,L,true,4671,1,0,1,0,1,
ga4,104,L,false,2287,2,0,1,0,0,
ga4,105,L,false,4166,2,0,0,0,1,
ga4,106,L,true,1073,1,0,1,1,1,
ga4,107,L,true,6576,1,0,1,0,1,
ga4,108,L,false,2957,2,1,0,0,1,
ga4,109,L,false,4119,1,0,0,0,0,
ga4,110,L,false,2919,2,1,1,1,0,
ga4,111,L,false,5622,1,1,1,0,1,
ga4,112,L,true,4257,2,1,0,1,1,
ga4,113,L,true,1407,1,0,0,1,1,
ga4,114,L,false,2275,2,0,1,0,0,
ga4,115,L,true,2202,2,1,0,1,1,
ga4,116,L,true,1047,2,1,1,1,1,
ga4,117,L,true,1917,1,0,0,1,1,
ga4,118,L,true,1607,2,0,1,1,1,
ga4,119,L,true,1133,1,0,0,1,1,
ga4,120,L,true,1025,2,1,1,1,1,
ga4,121,L,true,4388,2,0,1,0,1,
ga4,122,L,true,1899,1,1,0,1,1,
ga4,123,L,true,1449,1,1,1,1,1,
ga4,124,L,true,1479,1,1,1,1,0,
ga4,125,L,false,4838,1,1,1,0,1,
ga4,126,L,true,2260,1,1,0,1,1,
ga4,127,L,true,2768,1,0,1,0,1,
ga4,128,L,true,1631,1,0,1,1,1,
ga4,129,L,true,3769,1,1,0,1,0,
ga4,130,L,false,2790,1,1,0,0,1,
ga4,131,L,true,5127,2,1,1,1,1,
ga4,132,L,false,8481,1,0,0,0,1,
ga4,133,L,true,2454,1,1,0,1,1,
ga4,134,L,true,1839,1,1,1,1,1,
ga4,135,L,true,902,1,0,0,1,1,
ga4,136,L,false,863,2,0,1,0,0,
ga4,137,L,false,1813,2,1,0,0,1,
ga4,138,L,true,2089,2,1,0,1,0,
ga4,139,L,true,1191,1,1,0,1,1,
ga4,140,L,true,1918,2,1,1,1,1,
ga4,141,L,true,1222,2,1,1,1,1,
ga4,142,L,true,997,1,1,0,1,1,
ga4,143,L,true,1274,2,1,1,1,1,
ga4,144,L,true,775,1,0,0,1,1,
ga4,145,L,true,883,2,1,1,1,1,
ga4,146,L,false,739,2,0,1,0,0,
ga4,147,L,true,1422,2,1,0,1,1,
ga4,148,L,false,4164,2,0,0,0,1,
ga4,149,L,false,2511,1,1,0,0,1,
ga4,150,L,true,1128,1,0,0,1,1,
ga4,151,L,false,3200,1,1,0,0,1,
ga4,152,L,false,3329,2,0,1,1,0,
ga4,153,L,true,3002,2,1,0,1,0,
ga4,154,L,true,3058,2,1,1,1,1,
ga4,155,L,true,2160,1,0,1,0,1,
ga4,156,L,false,2218,2,0,0,0,0,
ga4,157,L,false,7047,2,0,0,0,1,
ga4,158,L,true,2394,2,0,1,1,1,
ga4,159,L,false,3757,2,0,0,0,1,
ga4,160,L,true,5785,1,1,0,1,1,
ga4,161,L,true,5520,1,1,1,1,0,
ga4,162,L,false,12212,2,0,1,1,0,
ga4,163,L,true,6292,2,0,1,0,1,
ga4,164,L,true,1746,1,1,1,0,1,
ga4,165,L,true,2594,2,0,1,1,1,
ga4,166,L,false,4705,1,1,0,0,1,
ga4,167,L,false,3919,2,0,0,0,1,
ga4,168,L,true,3670,2,1,0,1,1,
ga4,169,L,false,12464,1,0,0,1,0,
ga4,170,L,true,2444,1,0,0,1,1,
ga4,171,L,false,2234,2,1,1,0,1,
ga4,172,L,true,2233,1,0,1,0,1,
ga4,173,L,true,1970,2,1,1,1,1,
ga4,174,L,false,2801,2,0,0,0,1,
ga4,175,L,true,4110,1,0,1,0,1,
ga4,176,L,false,7284,2,0,0,0,1,
ga4,177,L,true,7539,1,1,1,1,0,
ga4,178,L,false,1829,1,1,0,0,0,
ga4,179,L,true,1752,1,0,0,1,1,
ga4,180,L,true,1834,1,0,0,1,1,
brk,brk,brk,brk,brk,brk,brk,brk,brk,brk,
ga4,181,L,true,3120,2,0,0,1,1,
ga4,182,L,true,1228,2,0,0,1,1,
ga4,183,L,false,1380,2,0,1,0,0,
ga4,184,L,true,962,1,1,1,1,1,
ga4,185,L,false,1245,2,1,0,0,0,
ga4,186,L,true,1058,2,1,1,1,1,
ga4,187,L,true,1113,2,0,0,1,1,
ga4,188,L,false,3455,2,0,0,0,1,
ga4,189,L,true,1293,2,1,1,1,1,
ga4,190,L,true,3401,1,0,1,0,1,
ga4,191,L,false,2356,1,0,0,0,1,
ga4,192,L,false,8509,1,1,0,0,0,
ga4,193,L,true,1208,2,1,0,1,1,
ga4,194,L,false,1059,1,1,0,1,0,
ga4,195,L,true,2476,2,1,0,1,1,
ga4,196,L,true,2801,1,0,0,1,0,
ga4,197,L,true,1936,1,0,1,1,1,
ga4,198,L,true,9103,1,0,1,0,1,
ga4,199,L,false,5165,2,1,1,0,1,
ga4,200,L,true,3175,1,0,1,0,1,
ga4,201,L,true,2371,1,0,1,1,1,
ga4,202,L,true,2257,2,1,0,1,0,
ga4,203,L,true,2599,2,1,1,1,0,
ga4,204,L,true,1288,1,0,0,1,1,
ga4,205,L,true,2063,1,0,1,1,1,
ga4,206,L,true,1840,2,1,1,1,1,
ga4,207,L,true,3751,2,1,1,1,0,
ga4,208,L,false,1832,2,1,0,0,1,
ga4,209,L,true,2575,1,1,0,1,1,
ga4,210,L,true,1481,1,0,0,1,1,
ga4,211,L,true,1697,2,1,1,1,1,
ga4,212,L,true,3568,2,0,1,1,1,
ga4,213,L,true,7666,1,1,0,1,0,
ga4,214,L,true,1658,2,0,0,1,1,
ga4,215,L,false,1187,2,0,0,0,0,
ga4,216,L,false,1314,1,0,0,0,0,
ga4,217,L,true,1621,2,1,1,1,1,
ga4,218,L,true,3168,1,0,0,1,0,
ga4,219,L,true,2712,2,1,1,1,1,
ga4,220,L,false,7064,2,0,1,0,0,
ga4,221,L,true,3255,1,1,1,1,0,
ga4,222,L,true,1273,1,1,1,1,1,
ga4,223,L,false,1319,2,0,1,0,0,
ga4,224,L,true,1632,2,1,0,1,1,
ga4,225,L,true,3548,2,1,0,1,1,
ga4,226,L,true,1533,1,1,0,1,1,
ga4,227,L,true,2923,2,1,1,1,0,
ga4,228,L,false,3152,1,0,0,0,1,
ga4,229,L,true,2146,1,1,1,1,1,
ga4,230,L,true,2426,1,0,0,1,0,
ga4,231,L,false,2167,1,1,0,0,1,
ga4,232,L,true,8774,2,1,0,1,0,
ga4,233,L,false,6615,1,1,0,0,1,
ga4,234,L,false,2166,1,0,0,0,0,
ga4,235,L,true,2404,1,1,1,1,0,
ga4,236,L,true,4350,1,0,0,1,1,
ga4,237,L,true,3184,1,1,0,1,1,
ga4,238,L,true,1643,1,1,0,1,0,
ga4,239,L,false,1984,2,0,0,0,1,
ga4,240,L,false,1831,2,0,0,0,1,
ga4,241,L,false,1328,2,0,0,1,1,
ga4,242,L,true,1439,1,1,1,1,1,
ga4,243,L,true,2655,1,1,0,1,0,
ga4,244,L,false,5590,1,0,1,1,0,
ga4,245,L,true,1569,1,1,1,1,1,
ga4,246,L,true,891,1,1,1,1,1,
ga4,247,L,true,2355,2,0,0,1,0,
ga4,248,L,true,2671,2,1,1,1,1,
ga4,249,L,true,1198,2,1,0,1,1,
ga4,250,L,true,1016,1,0,1,1,1,
ga4,251,L,true,1976,2,1,0,1,0,
ga4,252,L,true,2716,1,1,1,1,0,
ga4,253,L,true,1428,1,1,0,1,1,
ga4,254,L,false,1432,1,0,0,0,0,
ga4,255,L,true,1509,2,1,0,1,0,
ga4,256,L,false,4478,1,0,0,0,1,
ga4,257,L,true,2719,1,1,0,1,1,
ga4,258,L,false,4960,1,0,0,0,1,
ga4,259,L,true,2908,1,1,0,1,1,
ga4,260,L,true,1413,1,1,0,1,0,
ga4,261,L,false,999,2,1,1,0,0,
ga4,262,L,false,1515,1,0,0,0,0,
ga4,263,L,true,5330,1,0,1,1,1,
ga4,264,L,true,4225,1,1,0,1,1,
ga4,265,L,false,3641,2,1,1,0,1,
ga4,266,L,true,8269,2,0,1,1,1,
ga4,267,L,true,2991,1,0,1,1,1,
ga4,268,L,true,2662,1,1,1,1,0,
ga4,269,L,false,2558,1,0,1,1,0,
ga4,270,L,true,1127,1,0,0,1,1,
brk,brk,brk,brk,brk,brk,brk,brk,brk,brk,
ga4,271,L,true,2548,1,0,0,0,1,
ga4,272,L,false,1870,1,1,0,0,0,
ga4,273,L,true,799,2,1,1,1,1,
ga4,274,L,true,1482,1,0,0,1,0,
ga4,275,L,false,1783,1,0,1,0,0,
ga4,276,L,true,2118,2,1,0,1,1,
ga4,277,L,false,4524,1,0,1,1,0,
ga4,278,L,false,2313,1,1,0,0,1,
ga4,279,L,true,835,1,0,0,1,1,
ga4,280,L,true,2144,2,0,1,1,1,
ga4,281,L,true,1203,1,0,0,1,1,
ga4,282,L,false,2050,2,1,0,0,1,
ga4,283,L,false,3101,1,1,0,0,1,
ga4,284,L,true,1260,2,1,1,1,1,
ga4,285,L,true,5163,2,0,0,1,1,
ga4,286,L,true,742,2,0,0,1,1,
ga4,287,L,false,2800,2,0,1,0,0,
ga4,288,L,true,1299,2,1,1,0,1,
ga4,289,L,false,1324,1,1,1,1,0,
ga4,290,L,true,3256,1,0,1,0,1,
ga4,291,L,true,1580,1,1,1,1,1,
ga4,292,L,true,10463,1,0,0,1,0,
ga4,293,L,true,5665,1,1,1,1,1,
ga4,294,L,true,3516,1,0,1,0,1,
ga4,295,L,true,2521,2,1,0,1,0,
ga4,296,L,true,1535,2,0,0,1,1,
ga4,297,L,true,2644,1,0,1,0,1,
ga4,298,L,false,2509,2,1,0,0,1,
ga4,299,L,true,1590,2,1,1,1,1,
ga4,300,L,false,1200,2,1,1,0,0,
ga4,301,L,false,2335,1,0,0,0,1,
ga4,302,L,true,860,1,1,1,1,1,
ga4,303,L,true,1269,1,1,1,1,1,
ga4,304,L,true,1311,2,0,1,1,1,
ga4,305,L,true,1143,1,1,0,1,1,
ga4,306,L,true,2136,1,0,1,1,1,
ga4,307,L,true,2471,1,1,1,1,1,
ga4,308,L,true,1477,2,1,0,1,1,
ga4,309,L,false,1112,1,1,1,0,0,
ga4,310,L,true,3688,1,1,0,1,1,
ga4,311,L,true,1987,2,1,0,1,1,
ga4,312,L,true,7488,2,1,1,1,0,
ga4,313,L,true,2494,2,1,1,1,0,
ga4,314,L,true,2007,1,1,0,1,1,
ga4,315,L,true,1324,1,1,0,1,1,
ga4,316,L,true,967,1,1,1,1,1,
ga4,317,L,false,1062,1,0,1,1,0,
ga4,318,L,false,5671,1,0,1,1,0,
ga4,319,L,false,1422,1,0,1,0,0,
ga4,320,L,true,2263,2,0,0,1,0,
ga4,321,L,true,950,1,0,0,1,1,
ga4,322,L,false,1910,2,0,0,1,0,
ga4,323,L,true,2469,2,1,0,1,1,
ga4,324,L,true,1127,1,1,1,1,1,
ga4,325,L,true,2540,2,0,1,1,1,
ga4,326,L,true,3143,2,1,1,1,0,
ga4,327,L,false,1647,2,1,0,0,0,
ga4,328,L,true,1793,2,1,0,1,1,
ga4,329,L,false,949,2,1,1,0,0,
ga4,330,L,false,2767,1,1,0,0,0,
ga4,331,L,false,8097,2,0,0,0,1,
ga4,332,L,true,1918,2,0,1,0,1,
ga4,333,L,true,1809,2,1,0,1,1,
ga4,334,L,false,957,1,1,1,1,0,
ga4,335,L,true,1582,1,0,0,1,0,
ga4,336,L,true,910,1,1,0,1,1,
ga4,337,L,true,2006,2,1,0,1,1,
ga4,338,L,true,3997,2,0,1,0,1,
ga4,339,L,true,5738,1,0,1,1,1,
ga4,340,L,true,2062,2,0,1,1,1,
ga4,341,L,false,939,2,0,1,1,0,
ga4,342,L,true,1090,1,0,0,1,1,
ga4,343,L,true,2414,2,0,1,1,1,
ga4,344,L,false,1118,1,1,1,0,0,
ga4,345,L,true,2397,2,0,1,1,1,
ga4,346,L,true,712,1,0,0,1,1,
ga4,347,L,true,653,1,0,0,1,1,
ga4,348,L,true,1053,1,1,0,1,1,
ga4,349,L,true,852,1,0,1,1,1,
ga4,350,L,true,3450,2,1,0,1,1,
ga4,351,L,false,2251,2,0,0,0,1,
ga4,352,L,false,3051,1,1,1,0,1,
ga4,353,L,false,1732,1,0,0,0,1,
ga4,354,L,true,1334,1,1,1,1,1,
ga4,355,L,true,1031,2,1,1,1,1,
ga4,356,L,true,1926,1,1,0,1,0,
ga4,357,L,true,2165,1,0,0,1,0,
ga4,358,L,false,2126,1,0,1,1,0,
ga4,359,L,false,1250,2,0,0,0,1,
ga4,360,L,true,8281,2,1,1,1,0,
brk,brk,brk,brk,brk,brk,brk,brk,brk,brk,
ga4,361,L,false,2624,1,1,0,0,0,
ga4,362,L,false,954,2,0,1,0,0,
ga4,363,L,true,1303,2,1,0,1,1,
ga4,364,L,false,1084,1,1,1,1,0,
ga4,365,L,false,2691,2,1,0,0,1,
ga4,366,L,false,4684,2,0,1,0,0,
ga4,367,L,true,5937,1,0,1,1,1,
ga4,368,L,true,3373,2,1,1,1,0,
ga4,369,L,true,945,1,1,0,1,1,
ga4,370,L,true,1459,2,1,0,1,0,
ga4,371,L,true,1123,2,1,1,1,1,
ga4,372,L,true,1936,2,0,0,1,1,
ga4,373,L,true,6647,1,0,1,1,1,
ga4,374,L,true,660,1,0,0,1,1,
ga4,375,L,true,1648,2,1,1,1,1,
ga4,376,L,true,686,1,0,0,1,1,
ga4,377,L,true,2118,1,0,0,1,0,
ga4,378,L,true,5329,1,0,1,1,1,
ga4,379,L,false,1049,2,1,1,0,0,
ga4,380,L,true,2378,1,0,1,0,1,
ga4,381,L,true,1096,1,1,1,1,1,
ga4,382,L,true,1837,2,1,0,1,0,
ga4,383,L,false,11375,1,1,0,0,0,
ga4,384,L,true,4245,2,1,1,1,0,
ga4,385,L,false,5967,1,1,1,0,1,
ga4,386,L,true,4843,2,1,0,1,0,
ga4,387,L,true,7091,2,1,1,1,1,
ga4,388,L,true,1667,1,1,0,1,1,
ga4,389,L,true,1566,1,1,1,1,0,
ga4,390,L,true,1634,2,0,0,1,1,
ga4,391,L,false,5056,2,0,0,0,1,
ga4,392,L,false,3820,1,0,1,1,0,
ga4,393,L,true,5338,2,1,0,1,1,
ga4,394,L,false,17335,2,0,0,0,1,
ga4,395,L,true,1759,1,0,0,1,1,
ga4,396,L,false,2199,2,0,1,0,0,
ga4,397,L,true,1076,2,1,1,1,1,
ga4,398,L,true,4054,2,1,0,1,0,
ga4,399,L,false,823,2,0,0,0,0,
ga4,400,L,false,2641,1,1,0,0,0,
ga4,401,L,false,916,2,1,0,0,0,
ga4,402,L,false,849,2,0,0,0,0,
ga4,403,L,true,1099,1,1,1,1,1,
ga4,404,L,false,838,2,1,1,0,1,
ga4,405,L,true,1075,2,1,0,1,1,
ga4,406,L,true,1666,2,1,0,1,0,
ga4,407,L,false,4870,1,0,0,0,1,
ga4,408,L,true,2195,1,0,1,1,1,
ga4,409,L,true,836,1,0,0,1,1,
ga4,410,L,true,847,1,1,1,1,1,
ga4,411,L,false,1724,1,0,1,0,0,
ga4,412,L,true,2646,2,1,0,1,1,
ga4,413,L,true,950,2,1,1,1,1,
ga4,414,L,true,719,1,0,0,1,1,
ga4,415,L,true,1544,2,1,0,1,1,
ga4,416,L,true,702,1,1,0,1,1,
ga4,417,L,true,1254,1,1,0,1,1,
ga4,418,L,true,909,2,1,1,1,1,
ga4,419,L,true,1682,1,0,1,0,1,
ga4,420,L,true,1116,2,1,0,1,1,
ga4,421,L,true,989,1,1,0,1,1,
ga4,422,L,false,1359,2,0,1,0,0,
ga4,423,L,true,916,2,0,1,1,1,
ga4,424,L,false,2478,1,0,0,0,1,
ga4,425,L,false,2309,1,0,0,0,0,
ga4,426,L,false,8178,2,0,0,0,1,
ga4,427,L,true,13593,2,0,1,1,0,
ga4,428,L,true,3595,2,1,0,1,1,
ga4,429,L,true,1390,1,0,1,1,1,
ga4,430,L,true,3983,2,0,0,0,1,
ga4,431,L,true,8603,1,0,1,0,1,
ga4,432,L,false,10308,2,0,1,0,0,
ga4,433,L,true,2020,1,0,1,0,1,
ga4,434,L,true,1265,2,1,0,1,1,
ga4,435,L,true,3276,1,0,0,1,0,
ga4,436,L,true,682,1,0,0,1,1,
ga4,437,L,false,800,2,1,1,0,0,
ga4,438,L,false,1852,1,1,0,0,0,
ga4,439,L,true,1403,2,1,0,1,1,
ga4,440,L,true,5392,1,1,0,1,1,
ga4,441,L,true,1899,1,1,1,1,0,
ga4,442,L,false,9527,1,0,1,1,0,
ga4,443,L,true,4519,2,1,0,1,1,
ga4,444,L,true,790,2,1,1,1,1,
ga4,445,L,true,2556,2,1,0,1,0,
ga4,446,L,false,1308,1,1,0,0,1,
ga4,447,L,true,1649,1,0,0,1,1,
ga4,448,L,true,1170,1,1,0,1,1,
ga4,449,L,false,2871,1,0,0,0,1,
ga4,450,L,true,1461,2,1,1,1,1,
subID,trialNum,cntBalance,correct,rt,winner,p1conf,p2conf,p1rslt,p2rslt,
btm,1,L,false,5749,2,0,0,0,0,
btm,2,L,false,3041,1,0,1,0,1,
btm,3,L,true,1825,2,0,1,1,1,
btm,4,L,true,2084,2,1,1,1,1,
btm,5,L,false,2442,1,0,0,1,0,
btm,6,L,true,1653,2,0,1,1,0,
btm,7,L,true,1791,1,0,1,1,1,
btm,8,L,true,1095,1,1,0,1,1,
btm,9,L,false,1525,1,0,1,0,1,
btm,10,L,true,3309,2,0,1,0,1,
btm,11,L,true,3060,1,1,1,1,1,
btm,12,L,true,3752,1,0,0,1,1,
btm,13,L,true,1422,2,1,0,1,1,
btm,14,L,true,1929,1,0,0,1,0,
btm,15,L,true,1860,1,0,0,1,1,
btm,16,L,true,1473,1,0,0,1,0,
btm,17,L,true,1546,2,0,1,0,0,
btm,18,L,true,4012,2,1,0,1,0,
btm,19,L,false,3127,1,0,0,0,1,
btm,20,L,false,3374,2,1,1,1,0,
btm,21,L,true,1147,1,1,1,1,1,
btm,22,L,false,2453,2,0,1,1,0,
btm,23,L,false,2046,2,0,1,0,0,
btm,24,L,false,2196,2,1,1,0,1,
btm,25,L,true,1575,2,1,1,1,1,
btm,26,L,false,955,1,0,1,1,0,
btm,27,L,true,1087,1,1,0,0,1,
btm,28,L,true,2989,1,1,0,1,1,
btm,29,L,false,2741,2,0,0,0,1,
btm,30,L,true,2029,1,1,0,1,1,
btm,31,L,false,958,1,0,1,0,1,
btm,32,L,true,1890,1,1,1,1,1,
btm,33,L,true,1209,2,1,1,1,1,
btm,34,L,true,1275,2,1,0,1,1,
btm,35,L,true,1804,1,1,1,1,1,
btm,36,L,true,2698,1,1,0,1,1,
btm,37,L,false,1787,1,0,0,0,0,
btm,38,L,true,1432,1,0,1,0,1,
btm,39,L,true,3128,1,0,0,0,1,
btm,40,L,true,1712,2,1,1,1,0,
btm,41,L,true,1334,2,1,0,1,1,
btm,42,L,true,1015,2,1,0,1,1,
btm,43,L,true,1376,1,0,1,1,1,
btm,44,L,true,879,1,0,1,1,1,
btm,45,L,true,1073,2,0,1,0,1,
btm,46,L,false,2119,2,0,1,1,0,
btm,47,L,true,1491,2,0,1,0,1,
btm,48,L,true,832,2,0,1,0,1,
btm,49,L,false,915,1,0,1,1,1,
btm,50,L,true,2677,1,1,0,1,1,
btm,51,L,true,1528,2,1,1,1,0,
btm,52,L,true,1384,1,0,0,1,0,
btm,53,L,true,1311,1,0,0,1,1,
btm,54,L,false,1448,1,0,0,0,1,
btm,55,L,true,1096,1,1,0,1,0,
btm,56,L,true,1365,1,1,1,1,1,
btm,57,L,true,1384,2,1,0,1,1,
btm,58,L,false,833,2,1,0,0,0,
btm,59,L,false,695,1,0,1,1,1,
btm,60,L,true,1108,1,0,1,1,1,
btm,61,L,false,2284,1,0,1,0,1,
btm,62,L,false,2455,2,0,1,1,0,
btm,63,L,true,796,2,1,1,1,0,
btm,64,L,true,1372,1,1,0,1,0,
btm,65,L,true,992,2,1,1,1,1,
btm,66,L,true,1311,1,1,0,1,1,
btm,67,L,true,1632,1,0,0,1,0,
btm,68,L,true,1271,2,1,1,1,1,
btm,69,L,true,2135,2,0,0,1,0,
btm,70,L,false,871,1,1,1,1,0,
btm,71,L,true,1095,1,1,1,1,1,
btm,72,L,false,1270,2,0,0,1,0,
btm,73,L,true,1064,1,0,0,1,1,
btm,74,L,true,1046,2,1,1,1,0,
btm,75,L,true,1069,2,0,1,1,1,
btm,76,L,false,2486,2,0,0,0,0,
btm,77,L,true,873,2,1,0,1,1,
btm,78,L,false,1017,1,1,0,0,1,
btm,79,L,true,1406,2,0,0,1,0,
btm,80,L,false,1367,1,0,1,1,0,
btm,81,L,true,710,2,0,1,1,1,
btm,82,L,false,780,1,1,1,0,0,
btm,83,L,true,1074,2,0,1,0,1,
btm,84,L,false,1184,1,1,0,0,1,
btm,85,L,false,623,1,0,1,1,1,
btm,86,L,false,684,2,1,1,1,0,
btm,87,L,true,830,2,1,1,1,1,
btm,88,L,true,782,2,0,1,0,1,
btm,89,L,true,822,1,1,0,1,1,
btm,90,L,false,1040,1,1,1,1,0,
btm,91,L,true,1183,1,0,0,1,1,
btm,92,L,true,1137,2,1,0,1,0,
btm,93,L,true,713,2,1,1,1,0,
btm,94,L,true,718,2,1,1,1,1,
btm,95,L,true,792,1,1,1,1,1,
btm,96,L,true,815,1,1,0,1,1,
btm,97,L,true,1464,1,0,1,1,1,
btm,98,L,false,1438,2,0,0,1,0,
btm,99,L,false,1456,1,0,0,0,0,
btm,100,L,false,1460,2,0,0,0,1,
brk,brk,brk,brk,brk,brk,brk,brk,brk,brk,
btm,101,L,true,1569,2,1,1,1,1,
btm,102,L,false,892,2,0,0,0,0,
btm,103,L,true,762,2,0,1,1,1,
btm,104,L,false,968,2,0,0,0,0,
btm,105,L,true,639,2,1,1,1,1,
btm,106,L,true,710,2,0,1,1,1,
btm,107,L,true,1118,1,1,0,1,1,
btm,108,L,true,788,1,1,0,1,1,
btm,109,L,true,879,1,0,0,1,1,
btm,110,L,false,2375,1,0,0,0,1,
btm,111,L,true,925,1,0,0,1,1,
btm,112,L,true,992,2,1,0,1,1,
btm,113,L,false,1616,2,0,1,1,0,
btm,114,L,true,942,2,1,1,0,1,
btm,115,L,true,1174,1,1,0,1,1,
btm,116,L,true,2072,1,0,0,0,1,
btm,117,L,true,2080,1,1,0,1,1,
btm,118,L,true,1225,2,0,0,1,1,
btm,119,L,true,1426,2,1,0,1,1,
btm,120,L,true,1312,2,1,0,1,1,
btm,121,L,true,1072,2,1,0,1,1,
btm,122,L,false,1487,1,0,0,0,0,
btm,123,L,true,1496,1,1,1,1,1,
btm,124,L,true,1112,1,0,1,1,1,
btm,125,L,true,2622,1,1,1,0,1,
btm,126,L,true,1390,2,0,1,1,1,
btm,127,L,true,2232,1,1,0,1,0,
btm,128,L,true,1871,2,1,1,1,0,
btm,129,L,true,1555,2,0,1,1,1,
btm,130,L,true,1160,2,1,1,1,1,
btm,131,L,false,1286,1,1,1,1,0,
btm,132,L,true,1085,1,0,0,1,0,
btm,133,L,false,1082,1,1,1,1,0,
btm,134,L,false,716,2,1,1,1,1,
btm,135,L,true,849,2,1,0,1,1,
btm,136,L,false,635,1,1,1,0,1,
btm,137,L,true,897,1,0,1,0,1,
btm,138,L,false,782,1,0,1,1,0,
btm,139,L,true,725,2,1,1,1,1,
btm,140,L,true,584,2,1,1,1,1,
btm,141,L,true,807,2,0,1,1,1,
btm,142,L,false,848,2,0,0,0,0,
btm,143,L,true,1717,2,0,1,0,1,
btm,144,L,true,1710,2,1,0,1,1,
btm,145,L,true,1120,2,0,1,1,0,
btm,146,L,false,1376,1,0,0,1,1,
btm,147,L,true,1498,1,0,1,0,1,
btm,148,L,true,965,2,0,1,0,1,
btm,149,L,true,1032,1,0,0,1,0,
btm,150,L,true,817,2,0,1,1,1,
btm,151,L,true,585,1,0,0,1,1,
btm,152,L,true,977,1,1,0,1,1,
btm,153,L,true,691,1,1,0,1,1,
btm,154,L,true,1177,2,0,1,1,1,
btm,155,L,true,1589,2,0,0,1,0,
btm,156,L,true,886,1,1,0,1,0,
btm,157,L,false,939,1,0,1,0,0,
btm,158,L,true,939,1,1,0,1,0,
btm,159,L,true,566,1,0,0,1,1,
btm,160,L,true,712,2,1,0,1,1,
btm,161,L,false,574,1,1,1,1,1,
btm,162,L,true,863,2,0,0,1,1,
btm,163,L,false,616,1,1,1,1,1,
btm,164,L,true,931,1,1,1,1,0,
btm,165,L,false,891,1,1,0,1,0,
btm,166,L,true,735,1,1,1,1,1,
btm,167,L,true,914,2,0,0,1,1,
btm,168,L,false,968,2,1,1,0,1,
btm,169,L,true,689,2,1,1,1,1,
btm,170,L,true,831,2,0,1,0,1,
btm,171,L,true,1110,2,1,1,1,0,
btm,172,L,false,883,2,0,1,1,1,
btm,173,L,true,893,1,0,1,0,1,
btm,174,L,true,875,1,1,0,1,1,
btm,175,L,true,940,2,0,1,1,1,
btm,176,L,false,791,1,1,1,0,0,
btm,177,L,false,933,1,1,1,1,0,
btm,178,L,false,575,2,1,0,0,1,
btm,179,L,true,2904,2,0,0,1,1,
btm,180,L,true,681,1,1,1,1,1,
btm,181,L,true,918,2,0,0,0,1,
btm,182,L,true,1280,1,0,0,1,0,
btm,183,L,true,1238,1,0,1,0,1,
btm,184,L,true,1248,1,1,0,1,0,
btm,185,L,true,829,1,1,1,1,1,
btm,186,L,false,830,2,0,0,1,1,
btm,187,L,true,1064,2,1,1,1,0,
btm,188,L,true,1205,2,1,0,1,1,
btm,189,L,true,1337,1,1,1,1,1,
btm,190,L,false,1070,1,0,1,0,1,
btm,191,L,false,992,1,1,1,1,1,
btm,192,L,true,785,2,1,1,1,1,
btm,193,L,false,1136,1,0,1,1,0,
btm,194,L,true,638,1,0,0,1,1,
btm,195,L,true,1000,2,0,0,1,0,
btm,196,L,true,625,1,0,0,1,1,
btm,197,L,false,616,2,0,1,0,1,
btm,198,L,false,829,1,1,0,0,1,
btm,199,L,false,836,2,1,0,0,1,
btm,200,L,false,1835,2,0,0,1,0,
brk,brk,brk,brk,brk,brk,brk,brk,brk,brk,
btm,201,L,true,2987,2,0,1,0,1,
btm,202,L,true,558,1,1,1,1,1,
btm,203,L,true,848,1,0,1,0,1,
btm,204,L,true,728,1,0,0,1,1,
btm,205,L,true,761,2,0,1,1,0,
btm,206,L,false,368,2,1,0,1,1,
btm,207,L,false,385,1,0,1,0,0,
btm,208,L,false,297,2,0,0,1,1,
btm,209,L,false,683,1,1,0,1,0,
btm,210,L,false,813,2,0,0,0,0,
btm,211,L,true,1440,2,1,0,0,1,
btm,212,L,true,1623,2,1,1,1,0,
btm,213,L,true,702,1,1,1,1,1,
btm,214,L,true,1025,1,0,0,1,1,
btm,215,L,true,542,1,1,0,1,0,
btm,216,L,false,282,2,0,1,1,0,
btm,217,L,false,624,1,1,1,1,1,
btm,218,L,false,334,2,0,0,0,1,
btm,219,L,false,1053,1,1,0,0,0,
btm,220,L,false,1332,2,1,0,0,1,
btm,221,L,true,876,1,1,1,1,1,
btm,222,L,true,816,1,1,0,1,1,
btm,223,L,true,2133,1,1,1,1,1,
btm,224,L,true,441,1,1,0,1,1,
btm,225,L,false,636,2,0,0,1,0,
btm,226,L,true,473,1,1,0,1,1,
btm,227,L,false,489,2,0,0,0,1,
btm,228,L,false,731,1,0,0,1,0,
btm,229,L,false,662,2,1,0,1,1,
btm,230,L,false,1061,1,0,1,1,1,
btm,231,L,true,520,1,1,0,1,1,
btm,232,L,false,340,2,1,0,1,1,
btm,233,L,true,762,2,0,0,1,1,
btm,234,L,true,1101,2,0,0,0,1,
btm,235,L,true,711,1,1,1,1,1,
btm,236,L,false,778,1,0,1,1,0,
btm,237,L,true,848,1,0,1,1,1,
btm,238,L,false,1502,2,1,1,0,1,
btm,239,L,false,1098,1,0,0,0,1,
btm,240,L,false,742,1,0,1,1,0,
btm,241,L,true,1008,2,0,0,1,1,
btm,242,L,true,685,1,0,0,1,1,
btm,243,L,false,632,1,1,0,0,1,
btm,244,L,true,745,1,1,0,1,1,
btm,245,L,true,740,2,1,1,1,1,
btm,246,L,true,728,2,0,0,1,1,
btm,247,L,true,582,1,1,0,1,1,
btm,248,L,true,750,2,1,0,1,1,
btm,249,L,true,784,1,1,0,1,0,
btm,250,L,true,943,1,0,0,1,1,
btm,251,L,true,751,1,1,0,1,0,
btm,252,L,true,860,2,1,0,1,1,
btm,253,L,false,616,1,1,0,0,0,
btm,254,L,true,966,1,1,1,1,1,
btm,255,L,false,1133,2,1,1,0,1,
btm,256,L,true,569,2,0,1,1,0,
btm,257,L,true,777,2,1,1,1,0,
btm,258,L,true,698,1,1,0,1,1,
btm,259,L,true,620,1,1,0,1,0,
btm,260,L,true,576,1,1,1,1,1,
btm,261,L,true,1565,1,1,0,1,1,
btm,262,L,true,701,1,0,1,1,1,
btm,263,L,true,1590,1,1,1,1,1,
btm,264,L,true,829,1,0,0,1,1,
btm,265,L,true,917,2,0,1,1,1,
btm,266,L,true,1654,2,1,1,1,0,
btm,267,L,false,1993,1,1,1,0,0,
btm,268,L,true,751,2,0,0,1,1,
btm,269,L,true,1247,2,0,1,1,1,
btm,270,L,true,670,2,0,0,1,1,
btm,271,L,false,712,1,0,1,1,1,
btm,272,L,false,2645,1,1,0,0,1,
btm,273,L,true,508,1,1,1,1,1,
btm,274,L,true,571,1,0,0,0,1,
btm,275,L,true,807,2,0,1,0,1,
btm,276,L,true,1580,2,1,1,1,0,
btm,277,L,false,581,2,0,0,0,1,
btm,278,L,true,897,2,0,0,1,1,
btm,279,L,false,647,1,1,1,1,0,
btm,280,L,false,862,2,1,1,1,0,
btm,281,L,false,559,1,0,0,0,1,
btm,282,L,true,1211,2,0,1,0,1,
btm,283,L,true,743,1,1,1,1,1,
btm,284,L,true,1214,1,1,1,1,0,
btm,285,L,true,56,1,0,0,0,0,
btm,286,L,false,2407,2,0,1,1,1,
btm,287,L,true,1189,1,1,1,1,1,
btm,288,L,true,1361,2,1,0,1,1,
btm,289,L,true,555,2,1,1,1,0,
btm,290,L,false,499,1,1,0,0,1,
btm,291,L,false,534,1,0,1,1,0,
btm,292,L,true,336,2,0,0,0,0,
btm,293,L,false,654,2,0,1,1,1,
btm,294,L,false,726,1,1,1,1,0,
btm,295,L,true,798,2,0,0,1,1,
btm,296,L,false,567,2,1,0,1,0,
btm,297,L,true,638,2,1,1,1,1,
btm,298,L,false,586,2,0,0,0,1,
btm,299,L,false,761,1,0,1,1,0,
btm,300,L,false,646,1,1,1,1,1,
brk,brk,brk,brk,brk,brk,brk,brk,brk,brk,
btm,301,L,true,455,1,1,0,1,1,
btm,302,L,true,585,2,0,1,0,1,
btm,303,L,true,455,1,1,1,1,1,
btm,304,L,true,400,1,0,0,1,1,
btm,305,L,false,525,1,1,1,1,1,
btm,306,L,true,306,1,0,1,0,1,
btm,307,L,true,925,2,1,0,1,1,
btm,308,L,false,927,2,1,0,0,1,
btm,309,L,false,301,1,0,1,0,1,
btm,310,L,true,669,2,0,1,0,0,
btm,311,L,false,1936,2,1,1,1,1,
btm,312,L,true,1330,1,1,0,1,0,
btm,313,L,false,828,2,0,0,0,1,
btm,314,L,true,644,2,0,0,1,1,
btm,315,L,true,800,1,0,0,0,1,
btm,316,L,false,416,1,1,0,0,1,
btm,317,L,false,415,2,1,0,1,1,
btm,318,L,true,598,1,1,1,1,1,
btm,319,L,true,892,2,0,1,1,0,
btm,320,L,true,872,2,0,0,1,1,
btm,321,L,false,424,1,0,1,1,1,
btm,322,L,false,240,2,0,1,0,0,
btm,323,L,true,545,2,0,1,1,0,
btm,324,L,true,847,2,1,1,1,1,
btm,325,L,true,598,1,0,0,1,1,
btm,326,L,true,536,1,0,0,1,1,
btm,327,L,false,1063,2,0,0,0,0,
btm,328,L,true,1449,1,0,0,1,0,
btm,329,L,true,9163,2,0,1,0,1,
btm,330,L,true,862,2,0,0,1,0,
btm,331,L,false,983,2,1,0,0,1,
btm,332,L,true,1270,1,1,1,1,0,
btm,333,L,true,766,2,1,1,1,1,
btm,334,L,true,552,2,0,1,1,1,
btm,335,L,true,1093,2,0,1,0,0,
btm,336,L,true,790,2,0,1,1,0,
btm,337,L,true,2728,1,1,0,1,1,
btm,338,L,true,582,2,0,1,1,0,
btm,339,L,false,1032,1,0,1,0,1,
btm,340,L,true,664,2,1,0,1,0,
btm,341,L,true,1267,1,1,0,1,1,
btm,342,L,false,574,1,1,1,0,1,
btm,343,L,true,690,2,1,1,0,1,
btm,344,L,true,549,2,1,1,0,0,
btm,345,L,true,1651,1,0,1,1,1,
btm,346,L,false,554,2,0,0,0,0,
btm,347,L,false,688,1,0,1,1,0,
btm,348,L,true,580,1,0,0,1,1,
btm,349,L,true,566,1,1,0,1,1,
btm,350,L,true,965,1,1,0,1,0,
btm,351,L,true,1165,2,0,1,1,0,
btm,352,L,true,638,2,1,1,1,0,
btm,353,L,true,829,2,0,1,0,0,
btm,354,L,false,663,2,1,0,0,0,
btm,355,L,false,814,2,0,1,1,0,
btm,356,L,false,725,2,0,1,1,1,
btm,357,L,false,566,1,1,1,1,1,
btm,358,L,true,737,2,1,0,1,1,
btm,359,L,true,891,2,1,1,1,1,
btm,360,L,true,910,2,0,1,1,1,
btm,361,L,false,590,1,0,1,0,1,
btm,362,L,true,653,2,0,1,1,0,
btm,363,L,true,625,1,1,1,1,0,
btm,364,L,true,690,2,1,0,1,1,
btm,365,L,true,548,2,0,0,1,1,
btm,366,L,false,685,2,0,0,0,1,
btm,367,L,false,660,1,1,0,1,1,
btm,368,L,false,968,1,1,0,0,1,
btm,369,L,true,615,2,1,0,1,1,
btm,370,L,true,576,1,0,1,1,0,
btm,371,L,true,571,2,1,1,1,1,
btm,372,L,false,414,1,1,1,0,1,
btm,373,L,false,1640,1,0,1,0,1,
btm,374,L,false,641,1,1,1,1,0,
btm,375,L,true,1300,1,0,0,0,1,
btm,376,L,true,689,1,1,1,1,1,
btm,377,L,false,703,2,0,0,0,1,
btm,378,L,true,1117,2,1,0,1,0,
btm,379,L,true,1306,2,1,1,1,1,
btm,380,L,false,681,2,1,0,0,1,
btm,381,L,false,606,1,1,1,0,1,
btm,382,L,true,624,1,0,1,1,1,
btm,383,L,false,492,2,0,1,1,1,
btm,384,L,true,598,2,0,0,1,1,
btm,385,L,true,543,2,0,1,1,1,
btm,386,L,false,614,2,0,1,0,0,
btm,387,L,true,704,2,1,0,1,1,
btm,388,L,true,495,1,0,0,1,0,
btm,389,L,true,481,1,0,0,1,1,
btm,390,L,false,434,2,0,0,0,1,
btm,391,L,true,589,2,0,0,1,1,
btm,392,L,true,501,2,0,0,1,1,
btm,393,L,true,605,2,0,1,1,1,
btm,394,L,true,476,2,0,1,1,1,
btm,395,L,true,416,2,1,1,1,0,
btm,396,L,true,543,2,1,0,0,1,
btm,397,L,true,892,2,0,0,1,1,
btm,398,L,true,558,2,0,0,1,1,
btm,399,L,false,518,2,0,1,0,1,
btm,400,L,false,583,1,1,0,0,0,
brk,brk,brk,brk,brk,brk,brk,brk,brk,brk,
btm,401,L,true,867,1,1,0,1,1,
btm,402,L,true,566,1,1,1,1,1,
btm,403,L,false,746,1,0,1,1,0,
btm,404,L,true,556,1,0,1,1,1,
btm,405,L,false,517,1,1,1,0,1,
btm,406,L,true,742,2,1,0,1,1,
btm,407,L,false,534,1,1,1,0,1,
btm,408,L,true,494,1,1,0,1,1,
btm,409,L,true,886,2,0,0,1,1,
btm,410,L,true,630,1,0,0,1,0,
btm,411,L,false,1087,1,1,1,0,1,
btm,412,L,true,1028,1,0,1,1,0,
btm,413,L,false,535,1,1,0,0,1,
btm,414,L,false,502,2,1,0,1,1,
btm,415,L,false,423,1,1,0,0,1,
btm,416,L,false,866,2,0,0,0,1,
btm,417,L,true,547,2,1,0,1,1,
btm,418,L,true,632,2,0,0,0,1,
btm,419,L,true,1003,2,0,1,0,1,
btm,420,L,true,597,1,1,0,1,1,
btm,421,L,false,753,1,1,1,1,0,
btm,422,L,false,479,2,1,0,1,1,
btm,423,L,true,1143,1,1,0,1,1,
btm,424,L,false,648,2,0,0,0,0,
btm,425,L,false,1278,1,0,0,0,1,
btm,426,L,true,623,2,1,0,1,0,
btm,427,L,true,742,2,1,1,1,1,
btm,428,L,true,1199,2,0,0,1,1,
btm,429,L,false,592,1,1,0,1,0,
btm,430,L,false,606,2,0,1,0,0,
btm,431,L,false,373,1,1,1,1,0,
btm,432,L,true,567,1,0,0,1,0,
btm,433,L,true,880,2,1,0,0,1,
btm,434,L,false,1061,1,1,1,1,1,
btm,435,L,true,1102,1,0,0,1,0,
btm,436,L,true,715,2,1,1,1,0,
btm,437,L,true,782,2,1,1,1,1,
btm,438,L,true,486,1,0,0,1,1,
btm,439,L,true,1480,2,0,1,1,1,
btm,440,L,true,653,1,1,0,1,1,
btm,441,L,true,503,1,1,1,1,0,
btm,442,L,false,456,2,0,0,0,0,
btm,443,L,false,340,1,0,1,0,1,
btm,444,L,false,100,2,1,0,1,1,
btm,445,L,false,428,1,1,0,0,1,
btm,446,L,false,783,2,0,1,0,0,
btm,447,L,false,255,2,0,0,1,1,
btm,448,L,false,509,1,0,0,0,0,
btm,449,L,false,620,1,1,0,1,0,
btm,450,L,false,286,2,0,0,1,1,
btm,451,L,true,781,2,1,0,1,1,
btm,452,L,false,650,1,0,0,0,1,
btm,453,L,true,727,2,1,1,1,1,
btm,454,L,false,728,1,0,0,0,0,
btm,455,L,true,649,1,1,0,0,1,
btm,456,L,false,599,2,0,0,1,0,
btm,457,L,false,674,2,0,1,0,1,
btm,458,L,false,406,1,1,0,1,0,
btm,459,L,false,487,2,1,1,1,1,
btm,460,L,false,618,1,0,1,1,1,
btm,461,L,false,647,2,1,0,0,0,
btm,462,L,true,838,2,0,0,0,1,
btm,463,L,false,836,1,0,1,1,0,
btm,464,L,true,756,1,0,1,0,1,
btm,465,L,true,702,1,1,1,1,1,
btm,466,L,false,733,1,0,0,1,0,
btm,467,L,true,754,2,1,1,1,1,
btm,468,L,true,671,1,0,1,1,1,
btm,469,L,false,558,2,0,0,0,0,
btm,470,L,true,498,2,0,0,0,1,
btm,471,L,true,810,1,0,0,1,1,
btm,472,L,true,466,2,1,1,1,1,
btm,473,L,true,540,1,1,0,1,1,
btm,474,L,true,648,2,0,0,1,1,
btm,475,L,true,508,2,1,0,1,0,
btm,476,L,false,554,1,1,1,1,0,
btm,477,L,true,462,1,1,0,1,1,
btm,478,L,false,482,1,0,0,1,1,
btm,479,L,false,307,2,0,0,1,1,
btm,480,L,false,935,1,0,1,0,1,
btm,481,L,true,291,1,1,0,1,1,
btm,482,L,true,428,1,1,0,1,0,
btm,483,L,true,361,1,0,0,0,1,
btm,484,L,false,588,2,1,0,1,0,
btm,485,L,true,284,2,1,0,0,1,
btm,486,L,true,501,1,1,0,1,1,
btm,487,L,true,364,1,1,1,1,1,
btm,488,L,true,766,1,0,1,0,0,
btm,489,L,false,525,1,0,1,0,1,
btm,490,L,false,885,2,0,1,1,0,
btm,491,L,false,467,1,1,1,1,0,
btm,492,L,false,295,2,0,0,1,1,
btm,493,L,true,388,2,1,0,1,1,
btm,494,L,true,533,2,0,0,1,0,
btm,495,L,true,493,2,0,1,1,1,
btm,496,L,true,550,2,0,1,1,1,
btm,497,L,true,424,2,1,0,1,1,
btm,498,L,true,682,1,1,1,1,1,
btm,499,L,false,486,2,1,0,1,1,
btm,500,L,true,295,2,1,0,1,1,
subID,trialNum,cntBalance,correct,rt,winner,p1conf,p2conf,p1rslt,p2rslt,
r60,1,L,null,null,2,1,0,1,1,
r60,2,L,null,null,2,1,1,0,1,
r60,3,L,null,null,1,0,0,0,1,
r60,4,L,null,null,1,1,1,1,1,
r60,5,L,null,null,2,1,1,1,1,
r60,6,L,null,null,2,0,0,1,1,
r60,7,L,null,null,2,0,1,0,1,
r60,8,L,null,null,2,1,1,1,1,
r60,9,L,null,null,2,0,1,0,1,
r60,10,L,null,null,2,0,1,1,1,
r60,11,L,null,null,2,0,0,1,1,
r60,12,L,null,null,1,1,1,1,0,
r60,13,L,null,null,2,0,0,0,1,
r60,14,L,null,null,2,0,0,0,1,
r60,15,L,null,null,2,0,1,1,0,
r60,16,L,null,null,1,0,0,1,1,
r60,17,L,null,null,1,0,0,0,1,
r60,18,L,null,null,2,1,0,1,0,
r60,19,L,null,null,2,1,0,1,1,
r60,20,L,null,null,1,0,0,1,1,
r60,21,L,null,null,2,1,1,1,1,
r60,22,L,null,null,1,1,0,1,1,
r60,23,L,null,null,2,0,1,1,1,
r60,24,L,null,null,1,1,0,0,1,
r60,25,L,null,null,1,0,0,0,1,
r60,26,L,null,null,1,1,1,1,0,
r60,27,L,null,null,2,0,1,0,1,
r60,28,L,null,null,2,1,0,1,1,
r60,29,L,null,null,2,0,0,1,0,
r60,30,L,null,null,1,0,0,1,1,
r60,31,L,null,null,2,0,1,1,0,
r60,32,L,null,null,1,1,0,1,1,
r60,33,L,null,null,2,1,0,1,1,
r60,34,L,null,null,2,1,0,1,1,
r60,35,L,null,null,1,1,1,1,0,
r60,36,L,null,null,1,1,0,1,1,
r60,37,L,null,null,2,1,1,1,1,
r60,38,L,null,null,1,0,1,1,1,
r60,39,L,null,null,2,0,1,1,0,
r60,40,L,null,null,1,1,0,1,0,
r60,41,L,null,null,2,1,1,0,1,
r60,42,L,null,null,1,0,1,1,0,
r60,43,L,null,null,1,1,1,1,0,
r60,44,L,null,null,1,1,0,0,0,
r60,45,L,null,null,2,0,0,1,1,
r60,46,L,null,null,1,0,1,1,1,
r60,47,L,null,null,1,0,0,1,0,
r60,48,L,null,null,2,1,0,0,1,
r60,49,L,null,null,1,1,0,0,0,
r60,50,L,null,null,2,0,1,1,0,
r60,51,L,null,null,1,1,0,1,0,
r60,52,L,null,null,1,0,1,1,1,
r60,53,L,null,null,1,0,0,1,1,
r60,54,L,null,null,2,1,1,0,0,
r60,55,L,null,null,1,0,0,0,0,
r60,56,L,null,null,2,1,1,0,1,
r60,57,L,null,null,1,0,0,0,1,
r60,58,L,null,null,2,0,0,0,1,
r60,59,L,null,null,2,0,1,1,0,
r60,60,L,null,null,2,1,1,1,1,
r60,61,L,null,null,2,1,1,0,1,
r60,62,L,null,null,1,1,0,0,1,
r60,63,L,null,null,2,0,1,0,1,
r60,64,L,null,null,1,1,1,0,1,
r60,65,L,null,null,1,1,1,1,1,
r60,66,L,null,null,2,1,0,0,1,
r60,67,L,null,null,1,1,0,1,0,
r60,68,L,null,null,2,0,1,1,0,
r60,69,L,null,null,1,1,1,1,0,
r60,70,L,null,null,2,1,0,1,0,
r60,71,L,null,null,2,0,1,0,1,
r60,72,L,null,null,2,1,1,0,1,
r60,73,L,null,null,2,1,1,1,0,
r60,74,L,null,null,1,0,0,1,1,
r60,75,L,null,null,1,1,0,0,1,
r60,76,L,null,null,2,1,0,1,1,
r60,77,L,null,null,2,0,0,1,1,
r60,78,L,null,null,2,1,1,1,1,
r60,79,L,null,null,1,1,0,1,1,
r60,80,L,null,null,1,1,0,1,0,
r60,81,L,null,null,1,1,1,1,1,
r60,82,L,null,null,2,1,1,1,1,
r60,83,L,null,null,1,0,1,0,1,
r60,84,L,null,null,2,1,1,1,1,
r60,85,L,null,null,1,1,0,1,1,
r60,86,L,null,null,2,0,0,1,1,
r60,87,L,null,null,1,0,1,0,1,
r60,88,L,null,null,2,0,0,0,0,
r60,89,L,null,null,2,1,0,1,1,
r60,90,L,null,null,2,0,1,1,1,
r60,91,L,null,null,1,1,0,1,0,
r60,92,L,null,null,2,1,1,1,0,
r60,93,L,null,null,1,1,1,1,1,
r60,94,L,null,null,2,1,0,1,0,
r60,95,L,null,null,2,1,0,0,1,
r60,96,L,null,null,2,0,1,0,1,
r60,97,L,null,null,1,1,0,1,1,
r60,98,L,null,null,2,0,1,0,1,
r60,99,L,null,null,1,1,0,1,1,
r60,100,L,null,null,2,0,0,1,1,
brk,brk,brk,brk,brk,brk,brk,brk,brk,brk,
r60,101,L,null,null,1,0,0,0,1,
r60,102,L,null,null,1,1,1,1,1,
r60,103,L,null,null,2,0,0,0,0,
r60,104,L,null,null,1,0,0,1,1,
r60,105,L,null,null,2,1,1,0,1,
r60,106,L,null,null,1,0,1,1,0,
r60,107,L,null,null,1,1,0,1,1,
r60,108,L,null,null,1,1,0,1,1,
r60,109,L,null,null,2,0,1,1,0,
r60,110,L,null,null,1,1,0,1,1,
r60,111,L,null,null,1,1,1,1,1,
r60,112,L,null,null,1,0,1,1,1,
r60,113,L,null,null,1,1,1,1,1,
r60,114,L,null,null,1,1,0,1,1,
r60,115,L,null,null,1,0,0,1,0,
r60,116,L,null,null,2,0,0,1,1,
r60,117,L,null,null,2,0,0,0,1,
r60,118,L,null,null,1,1,1,0,1,
r60,119,L,null,null,1,0,1,0,1,
r60,120,L,null,null,2,1,0,1,1,
r60,121,L,null,null,1,1,1,1,0,
r60,122,L,null,null,1,1,1,1,0,
r60,123,L,null,null,2,0,0,0,1,
r60,124,L,null,null,2,1,1,1,1,
r60,125,L,null,null,2,0,1,0,1,
r60,126,L,null,null,1,0,0,1,1,
r60,127,L,null,null,1,0,1,1,1,
r60,128,L,null,null,2,0,0,0,1,
r60,129,L,null,null,1,1,1,0,0,
r60,130,L,null,null,1,1,0,1,1,
r60,131,L,null,null,1,1,0,1,1,
r60,132,L,null,null,1,1,1,1,1,
r60,133,L,null,null,2,1,1,0,1,
r60,134,L,null,null,2,1,0,1,1,
r60,135,L,null,null,2,0,1,1,0,
r60,136,L,null,null,2,1,0,0,1,
r60,137,L,null,null,2,1,1,1,1,
r60,138,L,null,null,2,0,0,1,0,
r60,139,L,null,null,1,0,0,1,1,
r60,140,L,null,null,2,0,1,1,1,
r60,141,L,null,null,1,0,1,0,1,
r60,142,L,null,null,1,1,1,1,1,
r60,143,L,null,null,1,0,1,1,1,
r60,144,L,null,null,1,0,0,0,0,
r60,145,L,null,null,1,1,1,1,1,
r60,146,L,null,null,1,0,1,0,1,
r60,147,L,null,null,1,1,0,1,1,
r60,148,L,null,null,1,0,1,1,1,
r60,149,L,null,null,2,1,1,0,0,
r60,150,L,null,null,2,1,1,1,1,
r60,151,L,null,null,1,0,1,1,0,
r60,152,L,null,null,2,1,1,1,0,
r60,153,L,null,null,1,1,0,1,1,
r60,154,L,null,null,1,0,1,0,1,
r60,155,L,null,null,2,0,1,1,0,
r60,156,L,null,null,1,0,0,0,1,
r60,157,L,null,null,2,0,0,0,1,
r60,158,L,null,null,1,0,0,1,0,
r60,159,L,null,null,1,1,1,1,0,
r60,160,L,null,null,1,1,1,1,1,
r60,161,L,null,null,1,0,1,0,1,
r60,162,L,null,null,2,1,1,1,0,
r60,163,L,null,null,1,0,1,1,0,
r60,164,L,null,null,1,1,0,0,1,
r60,165,L,null,null,2,0,0,1,1,
r60,166,L,null,null,1,0,1,0,1,
r60,167,L,null,null,1,1,1,0,1,
r60,168,L,null,null,1,1,1,1,1,
r60,169,L,null,null,1,1,1,1,1,
r60,170,L,null,null,2,0,1,1,1,
r60,171,L,null,null,1,0,1,1,0,
r60,172,L,null,null,1,1,0,1,0,
r60,173,L,null,null,1,1,1,1,1,
r60,174,L,null,null,2,1,1,1,1,
r60,175,L,null,null,1,0,0,1,1,
r60,176,L,null,null,2,0,0,1,1,
r60,177,L,null,null,1,1,1,1,1,
r60,178,L,null,null,1,1,1,0,1,
r60,179,L,null,null,2,0,0,1,1,
r60,180,L,null,null,1,0,0,0,0,
r60,181,L,null,null,2,1,0,1,0,
r60,182,L,null,null,1,1,0,0,1,
r60,183,L,null,null,2,0,1,0,0,
r60,184,L,null,null,1,0,0,0,1,
r60,185,L,null,null,1,1,0,1,0,
r60,186,L,null,null,2,1,1,0,0,
r60,187,L,null,null,2,1,0,1,1,
r60,188,L,null,null,2,0,0,1,0,
r60,189,L,null,null,2,1,1,1,1,
r60,190,L,null,null,2,1,1,1,0,
r60,191,L,null,null,1,1,1,0,1,
r60,192,L,null,null,2,0,0,0,0,
r60,193,L,null,null,1,0,0,1,1,
r60,194,L,null,null,1,1,1,1,1,
r60,195,L,null,null,2,1,0,1,1,
r60,196,L,null,null,2,1,0,0,1,
r60,197,L,null,null,1,0,0,0,1,
r60,198,L,null,null,2,0,0,1,1,
r60,199,L,null,null,1,1,0,1,1,
r60,200,L,null,null,1,0,1,1,1,
brk,brk,brk,brk,brk,brk,brk,brk,brk,brk,
r60,201,L,null,null,2,1,0,1,0,
r60,202,L,null,null,2,0,0,1,0,
r60,203,L,null,null,2,1,1,1,1,
r60,204,L,null,null,1,0,0,1,1,
r60,205,L,null,null,2,0,1,1,1,
r60,206,L,null,null,2,0,1,1,1,
r60,207,L,null,null,1,0,0,0,1,
r60,208,L,null,null,2,0,1,1,1,
r60,209,L,null,null,2,1,1,1,0,
r60,210,L,null,null,2,1,0,1,0,
r60,211,L,null,null,1,0,0,0,1,
r60,212,L,null,null,1,1,0,1,0,
r60,213,L,null,null,1,0,1,0,0,
r60,214,L,null,null,2,1,0,1,0,
r60,215,L,null,null,1,0,0,1,1,
r60,216,L,null,null,2,0,1,1,1,
r60,217,L,null,null,1,1,1,0,0,
r60,218,L,null,null,1,1,1,0,1,
r60,219,L,null,null,1,0,0,1,1,
r60,220,L,null,null,1,1,0,1,1,
r60,221,L,null,null,1,1,0,0,0,
r60,222,L,null,null,2,0,0,0,1,
r60,223,L,null,null,1,0,1,1,1,
r60,224,L,null,null,1,0,0,1,1,
r60,225,L,null,null,2,1,1,0,1,
r60,226,L,null,null,2,1,0,0,0,
r60,227,L,null,null,1,1,0,1,1,
r60,228,L,null,null,2,1,0,0,1,
r60,229,L,null,null,1,1,0,1,0,
r60,230,L,null,null,2,1,0,0,0,
r60,231,L,null,null,2,1,0,1,0,
r60,232,L,null,null,1,0,0,1,1,
r60,233,L,null,null,1,1,0,1,1,
r60,234,L,null,null,1,1,0,1,1,
r60,235,L,null,null,1,1,0,1,1,
r60,236,L,null,null,1,0,1,1,0,
r60,237,L,null,null,1,1,1,1,0,
r60,238,L,null,null,1,0,1,0,1,
r60,239,L,null,null,1,0,0,0,1,
r60,240,L,null,null,1,0,0,0,1,
r60,241,L,null,null,2,0,0,1,0,
r60,242,L,null,null,2,0,0,1,1,
r60,243,L,null,null,2,0,1,0,1,
r60,244,L,null,null,2,1,1,1,1,
r60,245,L,null,null,2,0,1,0,0,
r60,246,L,null,null,2,0,0,0,1,
r60,247,L,null,null,1,1,0,1,1,
r60,248,L,null,null,1,1,1,1,0,
r60,249,L,null,null,2,1,0,0,0,
r60,250,L,null,null,1,1,0,1,1,
r60,251,L,null,null,2,1,1,1,1,
r60,252,L,null,null,2,0,1,1,1,
r60,253,L,null,null,1,1,0,1,1,
r60,254,L,null,null,2,1,1,1,1,
r60,255,L,null,null,1,0,0,0,0,
r60,256,L,null,null,2,1,0,1,0,
r60,257,L,null,null,1,1,0,1,1,
r60,258,L,null,null,2,0,1,1,1,
r60,259,L,null,null,2,0,0,1,1,
r60,260,L,null,null,2,1,0,0,0,
r60,261,L,null,null,2,1,1,1,1,
r60,262,L,null,null,1,1,1,1,0,
r60,263,L,null,null,2,0,1,1,0,
r60,264,L,null,null,1,1,1,1,0,
r60,265,L,null,null,1,0,1,1,1,
r60,266,L,null,null,1,1,1,1,1,
r60,267,L,null,null,1,1,0,1,1,
r60,268,L,null,null,2,0,0,0,1,
r60,269,L,null,null,2,0,1,1,1,
r60,270,L,null,null,1,1,1,1,0,
r60,271,L,null,null,2,1,1,1,1,
r60,272,L,null,null,1,1,0,1,0,
r60,273,L,null,null,1,0,0,1,1,
r60,274,L,null,null,2,0,1,0,1,
r60,275,L,null,null,2,0,1,0,1,
r60,276,L,null,null,1,0,0,1,1,
r60,277,L,null,null,2,1,0,1,1,
r60,278,L,null,null,1,1,1,1,1,
r60,279,L,null,null,2,0,1,1,0,
r60,280,L,null,null,1,0,1,0,1,
r60,281,L,null,null,1,1,0,1,1,
r60,282,L,null,null,1,0,1,1,1,
r60,283,L,null,null,1,1,0,0,0,
r60,284,L,null,null,2,1,1,1,0,
r60,285,L,null,null,1,1,1,1,1,
r60,286,L,null,null,2,1,0,1,0,
r60,287,L,null,null,1,1,1,1,0,
r60,288,L,null,null,2,1,0,1,1,
r60,289,L,null,null,1,1,0,1,1,
r60,290,L,null,null,1,1,1,1,1,
r60,291,L,null,null,1,0,1,1,1,
r60,292,L,null,null,1,0,1,0,1,
r60,293,L,null,null,1,1,0,1,1,
r60,294,L,null,null,1,1,1,1,1,
r60,295,L,null,null,1,0,0,0,1,
r60,296,L,null,null,2,0,1,1,1,
r60,297,L,null,null,1,0,1,1,0,
r60,298,L,null,null,1,1,1,1,1,
r60,299,L,null,null,2,1,0,1,0,
r60,300,L,null,null,1,0,0,0,0,
brk,brk,brk,brk,brk,brk,brk,brk,brk,brk,
r60,301,L,null,null,2,1,0,1,1,
r60,302,L,null,null,1,0,0,1,1,
r60,303,L,null,null,2,1,0,1,1,
r60,304,L,null,null,1,1,0,1,0,
r60,305,L,null,null,2,0,0,0,0,
r60,306,L,null,null,1,1,0,1,0,
r60,307,L,null,null,1,1,0,1,1,
r60,308,L,null,null,2,0,0,1,1,
r60,309,L,null,null,1,0,0,1,1,
r60,310,L,null,null,2,0,1,0,1,
r60,311,L,null,null,1,0,0,1,0,
r60,312,L,null,null,1,0,1,1,1,
r60,313,L,null,null,2,0,1,1,1,
r60,314,L,null,null,2,0,0,0,1,
r60,315,L,null,null,1,1,1,1,1,
r60,316,L,null,null,2,0,1,0,0,
r60,317,L,null,null,2,1,0,0,1,
r60,318,L,null,null,2,0,1,0,0,
r60,319,L,null,null,1,1,1,1,0,
r60,320,L,null,null,1,0,1,1,1,
r60,321,L,null,null,2,0,1,0,1,
r60,322,L,null,null,1,1,1,1,0,
r60,323,L,null,null,2,1,0,1,0,
r60,324,L,null,null,1,0,1,1,1,
r60,325,L,null,null,1,0,1,0,1,
r60,326,L,null,null,2,0,1,1,1,
r60,327,L,null,null,2,1,0,1,1,
r60,328,L,null,null,2,1,1,1,0,
r60,329,L,null,null,1,1,1,1,1,
r60,330,L,null,null,1,1,0,1,0,
r60,331,L,null,null,2,0,0,1,1,
r60,332,L,null,null,1,1,0,1,1,
r60,333,L,null,null,2,0,0,0,1,
r60,334,L,null,null,1,0,1,0,0,
r60,335,L,null,null,1,0,0,1,1,
r60,336,L,null,null,2,0,0,0,1,
r60,337,L,null,null,2,0,0,0,1,
r60,338,L,null,null,1,0,0,1,1,
r60,339,L,null,null,2,0,0,0,1,
r60,340,L,null,null,2,1,0,1,1,
r60,341,L,null,null,1,0,0,1,1,
r60,342,L,null,null,1,0,0,0,1,
r60,343,L,null,null,2,0,1,0,1,
r60,344,L,null,null,2,1,1,1,0,
r60,345,L,null,null,2,0,1,1,1,
r60,346,L,null,null,2,1,1,1,0,
r60,347,L,null,null,1,1,1,1,1,
r60,348,L,null,null,2,0,1,0,1,
r60,349,L,null,null,2,1,0,1,1,
r60,350,L,null,null,2,0,1,1,1,
r60,351,L,null,null,2,1,0,1,0,
r60,352,L,null,null,1,0,1,1,1,
r60,353,L,null,null,2,1,0,0,1,
r60,354,L,null,null,2,1,0,1,1,
r60,355,L,null,null,2,0,0,1,1,
r60,356,L,null,null,2,0,1,0,1,
r60,357,L,null,null,1,1,1,1,1,
r60,358,L,null,null,2,0,1,0,0,
r60,359,L,null,null,2,1,0,0,0,
r60,360,L,null,null,2,0,1,0,0,
r60,361,L,null,null,2,0,0,0,1,
r60,362,L,null,null,1,1,0,1,1,
r60,363,L,null,null,1,1,0,1,1,
r60,364,L,null,null,2,1,0,1,0,
r60,365,L,null,null,1,1,0,1,1,
r60,366,L,null,null,2,0,0,1,0,
r60,367,L,null,null,1,1,0,0,0,
r60,368,L,null,null,1,0,0,1,0,
r60,369,L,null,null,1,1,1,1,1,
r60,370,L,null,null,2,0,0,1,0,
r60,371,L,null,null,1,1,1,1,0,
r60,372,L,null,null,2,1,1,1,1,
r60,373,L,null,null,2,1,1,1,1,
r60,374,L,null,null,2,0,1,1,1,
r60,375,L,null,null,2,0,0,0,1,
r60,376,L,null,null,1,0,1,1,1,
r60,377,L,null,null,2,1,0,1,1,
r60,378,L,null,null,2,1,0,0,1,
r60,379,L,null,null,1,1,1,1,1,
r60,380,L,null,null,1,0,0,1,0,
r60,381,L,null,null,2,0,0,1,0,
r60,382,L,null,null,1,1,0,0,1,
r60,383,L,null,null,2,1,0,1,1,
r60,384,L,null,null,2,0,1,1,1,
r60,385,L,null,null,2,1,1,1,0,
r60,386,L,null,null,2,0,1,1,0,
r60,387,L,null,null,2,1,0,1,1,
r60,388,L,null,null,2,1,0,1,0,
r60,389,L,null,null,1,0,0,1,1,
r60,390,L,null,null,2,1,0,1,1,
r60,391,L,null,null,1,1,1,1,1,
r60,392,L,null,null,1,1,0,1,1,
r60,393,L,null,null,1,0,0,1,0,
r60,394,L,null,null,2,0,1,1,0,
r60,395,L,null,null,2,0,1,1,1,
r60,396,L,null,null,1,0,0,0,0,
r60,397,L,null,null,2,0,1,0,0,
r60,398,L,null,null,2,1,0,1,0,
r60,399,L,null,null,1,1,1,1,0,
r60,400,L,null,null,2,1,0,1,0,
brk,brk,brk,brk,brk,brk,brk,brk,brk,brk,
r60,401,L,null,null,1,1,0,0,1,
r60,402,L,null,null,2,0,0,1,0,
r60,403,L,null,null,2,0,1,0,0,
r60,404,L,null,null,2,0,0,1,1,
r60,405,L,null,null,1,0,0,1,1,
r60,406,L,null,null,1,0,0,1,1,
r60,407,L,null,null,1,1,1,1,1,
r60,408,L,null,null,2,0,0,0,1,
r60,409,L,null,null,1,0,1,0,1,
r60,410,L,null,null,1,0,1,1,1,
r60,411,L,null,null,1,1,0,1,0,
r60,412,L,null,null,1,0,0,1,1,
r60,413,L,null,null,2,1,0,1,1,
r60,414,L,null,null,2,1,0,1,1,
r60,415,L,null,null,1,0,1,1,0,
r60,416,L,null,null,1,1,1,1,1,
r60,417,L,null,null,1,0,1,1,0,
r60,418,L,null,null,2,0,0,0,1,
r60,419,L,null,null,2,1,0,1,1,
r60,420,L,null,null,1,0,0,0,1,
r60,421,L,null,null,2,1,0,1,1,
r60,422,L,null,null,1,0,0,0,1,
r60,423,L,null,null,2,1,1,1,0,
r60,424,L,null,null,2,1,1,0,1,
r60,425,L,null,null,1,0,1,0,0,
r60,426,L,null,null,2,1,1,0,1,
r60,427,L,null,null,2,1,1,1,1,
r60,428,L,null,null,1,0,0,0,1,
r60,429,L,null,null,2,0,0,1,0,
r60,430,L,null,null,2,0,0,1,0,
r60,431,L,null,null,2,1,1,1,0,
r60,432,L,null,null,1,0,1,0,1,
r60,433,L,null,null,1,1,0,1,0,
r60,434,L,null,null,1,1,0,0,0,
r60,435,L,null,null,1,1,0,1,1,
r60,436,L,null,null,1,0,1,1,1,
r60,437,L,null,null,2,1,1,1,0,
r60,438,L,null,null,2,0,1,0,1,
r60,439,L,null,null,2,1,1,1,0,
r60,440,L,null,null,1,1,0,1,1,
r60,441,L,null,null,1,0,1,0,1,
r60,442,L,null,null,1,1,0,1,1,
r60,443,L,null,null,2,1,1,0,1,
r60,444,L,null,null,2,0,1,0,1,
r60,445,L,null,null,1,0,0,1,0,
r60,446,L,null,null,1,1,1,1,0,
r60,447,L,null,null,1,1,0,0,1,
r60,448,L,null,null,2,0,1,1,1,
r60,449,L,null,null,1,0,0,1,0,
r60,450,L,null,null,1,1,0,0,1,
r60,451,L,null,null,2,0,1,0,0,
r60,452,L,null,null,1,1,1,1,1,
r60,453,L,null,null,1,1,1,1,1,
r60,454,L,null,null,2,1,1,1,0,
r60,455,L,null,null,1,0,1,1,0,
r60,456,L,null,null,2,0,1,0,1,
r60,457,L,null,null,2,1,1,1,0,
r60,458,L,null,null,1,0,1,1,1,
r60,459,L,null,null,1,1,1,1,0,
r60,460,L,null,null,2,1,0,1,1,
r60,461,L,null,null,1,0,0,0,1,
r60,462,L,null,null,1,1,1,1,1,
r60,463,L,null,null,2,0,0,0,0,
r60,464,L,null,null,2,0,0,1,1,
r60,465,L,null,null,2,1,0,1,1,
r60,466,L,null,null,1,0,1,1,1,
r60,467,L,null,null,2,1,0,1,1,
r60,468,L,null,null,1,1,0,1,1,
r60,469,L,null,null,2,1,0,0,1,
r60,470,L,null,null,1,0,1,1,1,
r60,471,L,null,null,1,1,1,1,1,
r60,472,L,null,null,1,1,0,1,0,
r60,473,L,null,null,2,0,1,1,1,
r60,474,L,null,null,1,1,0,1,1,
r60,475,L,null,null,2,1,0,1,0,
r60,476,L,null,null,2,1,1,1,1,
r60,477,L,null,null,2,1,1,1,1,
r60,478,L,null,null,2,1,0,1,1,
r60,479,L,null,null,2,0,0,1,1,
r60,480,L,null,null,1,0,0,1,1,
r60,481,L,null,null,1,1,0,1,0,
r60,482,L,null,null,1,1,1,1,0,
r60,483,L,null,null,2,0,1,1,1,
r60,484,L,null,null,2,0,0,0,0,
r60,485,L,null,null,2,1,1,0,0,
r60,486,L,null,null,1,0,0,1,1,
r60,487,L,null,null,2,1,0,1,1,
r60,488,L,null,null,2,1,1,1,1,
r60,489,L,null,null,1,1,1,0,1,
r60,490,L,null,null,1,0,0,1,1,
r60,491,L,null,null,2,0,0,1,1,
r60,492,L,null,null,2,0,1,0,1,
r60,493,L,null,null,1,0,1,1,1,
r60,494,L,null,null,1,0,0,0,0,
r60,495,L,null,null,1,0,0,1,1,
r60,496,L,null,null,1,0,1,1,0,
r60,497,L,null,null,1,1,1,1,1,
r60,498,L,null,null,1,1,1,0,1,
r60,499,L,null,null,2,0,0,1,1,
r60,500,L,null,null,1,1,0,1,0,
subID,trialNum,cntBalance,correct,rt,winner,p1conf,p2conf,p1rslt,p2rslt,
7t8,1,L,true,5542,2,1,1,1,1,
7t8,2,L,false,3460,1,0,1,0,0,
7t8,3,L,true,4730,1,1,0,1,0,
7t8,4,L,false,3338,2,1,1,0,0,
7t8,5,L,false,6678,1,0,0,0,0,
7t8,6,L,false,2870,1,0,0,1,0,
7t8,7,L,true,1918,2,0,0,0,1,
7t8,8,L,false,1631,1,0,0,1,0,
7t8,9,L,true,1309,2,1,1,1,1,
7t8,10,L,true,1219,2,1,1,1,1,
7t8,11,L,true,3864,1,0,1,1,1,
7t8,12,L,false,1775,2,0,0,0,1,
7t8,13,L,false,1565,1,0,1,1,0,
7t8,14,L,true,2453,1,0,0,1,1,
7t8,15,L,true,1365,2,1,1,1,1,
7t8,16,L,false,2559,1,1,0,0,1,
7t8,17,L,true,3174,2,1,0,1,0,
7t8,18,L,false,1308,1,1,1,1,0,
7t8,19,L,true,1219,1,0,0,1,1,
7t8,20,L,true,2909,1,1,1,1,1,
7t8,21,L,false,1278,1,1,0,1,0,
7t8,22,L,false,1301,1,1,0,0,0,
7t8,23,L,false,1093,2,0,1,1,0,
7t8,24,L,true,1150,2,1,0,1,1,
7t8,25,L,false,863,2,0,0,0,1,
7t8,26,L,false,687,2,0,0,1,1,
7t8,27,L,false,1342,1,0,1,1,0,
7t8,28,L,true,1463,2,0,1,1,1,
7t8,29,L,true,975,1,0,0,1,1,
7t8,30,L,true,949,2,0,1,1,1,
7t8,31,L,true,1055,1,0,1,1,1,
7t8,32,L,false,975,1,0,0,1,0,
7t8,33,L,true,2231,1,1,1,1,1,
7t8,34,L,true,1673,2,0,0,1,1,
7t8,35,L,true,724,2,0,0,1,1,
7t8,36,L,false,752,1,0,0,0,1,
7t8,37,L,true,757,1,1,1,1,0,
7t8,38,L,false,1087,2,0,0,0,0,
7t8,39,L,true,719,1,0,0,1,1,
7t8,40,L,false,772,2,0,0,0,0,
7t8,41,L,true,771,2,0,0,1,1,
7t8,42,L,true,813,2,1,1,1,1,
7t8,43,L,false,1057,1,0,1,0,1,
7t8,44,L,true,1693,2,1,0,1,1,
7t8,45,L,true,2551,1,1,1,1,0,
7t8,46,L,false,1324,2,1,1,0,0,
7t8,47,L,false,2994,1,0,0,1,0,
7t8,48,L,false,743,2,1,0,0,1,
7t8,49,L,true,303,2,0,1,1,0,
7t8,50,L,false,2360,2,0,1,1,0,
7t8,51,L,true,1312,1,1,1,1,1,
7t8,52,L,true,312,2,0,1,0,1,
7t8,53,L,true,1591,2,0,0,1,1,
7t8,54,L,true,1696,2,0,0,1,1,
7t8,55,L,false,1112,1,0,1,1,1,
7t8,56,L,true,1233,2,0,1,0,1,
7t8,57,L,false,1308,1,1,1,1,0,
7t8,58,L,true,1144,1,1,1,1,1,
7t8,59,L,true,966,2,0,0,0,1,
7t8,60,L,true,968,1,1,1,1,1,
7t8,61,L,false,1118,1,0,1,0,0,
7t8,62,L,true,2010,2,1,0,1,1,
7t8,63,L,false,1417,2,0,1,1,0,
7t8,64,L,true,1263,2,0,0,1,1,
7t8,65,L,true,943,2,1,0,1,1,
7t8,66,L,true,734,1,1,0,1,1,
7t8,67,L,true,941,2,1,1,1,0,
7t8,68,L,true,1886,1,1,0,1,0,
7t8,69,L,true,1973,2,0,0,1,1,
7t8,70,L,false,1161,1,1,1,1,0,
7t8,71,L,false,1911,1,0,0,0,1,
7t8,72,L,true,1631,1,0,1,0,1,
7t8,73,L,true,1264,1,0,0,0,1,
7t8,74,L,false,2342,2,0,0,0,0,
7t8,75,L,true,936,1,1,0,1,1,
7t8,76,L,true,2791,2,0,0,1,0,
7t8,77,L,false,1088,1,1,0,1,0,
7t8,78,L,true,1079,1,0,0,0,1,
7t8,79,L,true,1655,2,0,0,0,1,
7t8,80,L,true,1607,1,1,1,1,1,
7t8,81,L,false,1342,2,0,0,0,0,
7t8,82,L,true,1126,1,1,0,1,1,
7t8,83,L,false,3021,2,0,0,1,0,
7t8,84,L,false,2501,1,1,1,0,0,
7t8,85,L,false,1565,1,0,1,1,1,
7t8,86,L,true,1152,2,1,0,1,1,
7t8,87,L,true,1310,1,0,1,1,1,
7t8,88,L,true,1334,2,0,1,1,1,
7t8,89,L,false,1154,2,0,0,0,0,
7t8,90,L,true,807,2,1,0,1,0,
7t8,91,L,false,973,1,1,0,1,0,
7t8,92,L,true,889,2,1,1,1,1,
7t8,93,L,true,996,2,1,0,0,1,
7t8,94,L,true,1098,1,0,1,0,1,
7t8,95,L,true,1285,1,1,0,1,0,
7t8,96,L,false,1493,1,0,1,1,0,
7t8,97,L,false,2055,1,1,0,0,1,
7t8,98,L,true,2214,2,0,1,1,0,
7t8,99,L,true,2900,1,0,1,1,1,
7t8,100,L,false,1597,1,0,1,0,1,
brk,brk,brk,brk,brk,brk,brk,brk,brk,brk,
7t8,101,L,true,2473,2,1,0,1,1,
7t8,102,L,true,917,2,1,0,0,1,
7t8,103,L,true,862,2,0,1,1,1,
7t8,104,L,false,767,2,0,0,1,0,
7t8,105,L,true,1274,2,1,0,1,1,
7t8,106,L,true,910,2,0,1,0,1,
7t8,107,L,true,906,2,0,0,1,1,
7t8,108,L,false,927,2,0,0,1,0,
7t8,109,L,true,823,2,1,1,1,1,
7t8,110,L,false,653,1,0,0,0,1,
7t8,111,L,false,1087,2,1,1,0,0,
7t8,112,L,true,735,1,1,1,1,1,
7t8,113,L,true,743,2,0,1,0,1,
7t8,114,L,true,1048,2,0,0,0,1,
7t8,115,L,false,866,1,0,1,0,0,
7t8,116,L,true,983,1,1,0,1,1,
7t8,117,L,true,1526,2,1,0,1,0,
7t8,118,L,true,1695,1,1,0,1,1,
7t8,119,L,false,3447,1,1,1,0,1,
7t8,120,L,false,3255,1,0,0,0,1,
7t8,121,L,true,2208,1,1,0,1,1,
7t8,122,L,true,1017,1,1,1,1,0,
7t8,123,L,true,158,2,0,1,0,0,
7t8,124,L,true,16,1,0,1,1,1,
7t8,125,L,false,97,2,0,1,1,1,
7t8,126,L,true,626,2,1,0,1,1,
7t8,127,L,true,864,1,0,0,0,1,
7t8,128,L,true,130,2,0,1,1,0,
7t8,129,L,true,288,2,0,1,0,1,
7t8,130,L,true,1505,1,0,1,1,0,
7t8,131,L,true,1360,2,1,0,1,0,
7t8,132,L,true,991,2,0,1,1,1,
7t8,133,L,true,1337,2,1,1,1,1,
7t8,134,L,true,1679,1,1,1,1,1,
7t8,135,L,false,1301,2,0,0,0,1,
7t8,136,L,true,857,2,1,0,1,1,
7t8,137,L,true,1241,2,0,1,0,1,
7t8,138,L,true,982,2,0,1,0,1,
7t8,139,L,false,767,2,0,1,0,1,
7t8,140,L,true,855,2,1,0,1,0,
7t8,141,L,false,831,1,0,0,1,0,
7t8,142,L,true,614,2,1,1,1,0,
7t8,143,L,true,905,1,0,0,1,0,
7t8,144,L,false,545,1,0,0,1,1,
7t8,145,L,false,809,2,1,1,1,1,
7t8,146,L,false,745,1,1,1,1,1,
7t8,147,L,true,599,2,1,0,1,1,
7t8,148,L,true,648,2,1,0,1,0,
7t8,149,L,true,1026,1,1,0,1,1,
7t8,150,L,true,768,2,0,1,1,0,
7t8,151,L,false,616,1,0,1,0,1,
7t8,152,L,false,145,2,1,0,1,0,
7t8,153,L,false,33,1,0,0,1,0,
7t8,154,L,true,305,1,1,1,1,1,
7t8,155,L,true,152,1,0,0,1,0,
7t8,156,L,false,342,1,0,1,1,0,
7t8,157,L,false,355,2,0,0,1,1,
7t8,158,L,true,973,1,0,0,1,1,
7t8,159,L,true,1094,2,0,0,1,1,
7t8,160,L,false,657,2,0,0,1,1,
7t8,161,L,true,320,2,0,1,0,1,
7t8,162,L,false,48,2,1,0,0,1,
7t8,163,L,false,153,1,1,1,1,0,
7t8,164,L,true,40,1,1,0,1,1,
7t8,165,L,false,312,1,0,0,1,1,
7t8,166,L,false,2503,2,1,0,0,1,
7t8,167,L,false,2529,1,0,1,0,0,
7t8,168,L,true,2886,2,0,0,1,1,
7t8,169,L,true,1120,2,1,1,1,1,
7t8,170,L,false,2956,2,0,1,0,1,
7t8,171,L,true,529,2,0,0,1,0,
7t8,172,L,false,287,1,0,0,0,1,
7t8,173,L,true,23,2,0,1,0,1,
7t8,174,L,true,136,2,0,0,0,1,
7t8,175,L,false,241,2,0,0,1,1,
7t8,176,L,true,24,2,1,0,1,0,
7t8,177,L,false,201,1,1,1,1,1,
7t8,178,L,false,909,1,1,1,1,0,
7t8,179,L,true,725,1,1,0,1,1,
7t8,180,L,true,815,2,1,1,1,0,
7t8,181,L,false,894,1,0,1,0,1,
7t8,182,L,false,349,2,0,1,0,1,
7t8,183,L,true,727,2,0,0,1,1,
7t8,184,L,true,768,2,0,1,1,0,
7t8,185,L,true,953,1,1,0,1,1,
7t8,186,L,true,1881,1,1,1,1,1,
7t8,187,L,false,265,1,1,0,1,0,
7t8,188,L,false,391,2,0,1,0,0,
7t8,189,L,false,49,1,1,1,1,0,
7t8,190,L,false,241,2,0,1,1,0,
7t8,191,L,false,1152,1,1,0,1,0,
7t8,192,L,true,945,2,1,0,1,1,
7t8,193,L,true,1051,2,0,1,1,1,
7t8,194,L,true,734,1,0,1,1,1,
7t8,195,L,false,561,2,0,1,1,1,
7t8,196,L,true,1360,2,0,1,0,1,
7t8,197,L,true,1289,1,1,1,1,0,
7t8,198,L,true,2295,1,1,0,1,1,
7t8,199,L,true,810,2,0,1,1,1,
7t8,200,L,false,1101,1,1,0,0,1,
brk,brk,brk,brk,brk,brk,brk,brk,brk,brk,
7t8,201,L,true,1628,2,0,1,0,1,
7t8,202,L,false,176,1,0,1,1,1,
7t8,203,L,false,145,1,1,1,1,1,
7t8,204,L,true,265,1,1,1,1,1,
7t8,205,L,true,679,1,1,1,1,1,
7t8,206,L,true,432,1,1,0,1,1,
7t8,207,L,false,121,2,0,0,1,0,
7t8,208,L,false,336,1,1,1,1,1,
7t8,209,L,true,137,1,0,1,1,1,
7t8,210,L,true,160,1,1,1,1,1,
7t8,211,L,false,41,2,1,0,0,0,
7t8,212,L,true,86,2,0,0,1,1,
7t8,213,L,true,196,2,1,0,1,0,
7t8,214,L,false,390,2,1,1,1,1,
7t8,215,L,false,142,1,1,0,1,0,
7t8,216,L,true,94,2,1,1,1,0,
7t8,217,L,false,144,1,0,0,1,1,
7t8,218,L,false,128,1,1,1,0,1,
7t8,219,L,false,72,2,1,1,1,1,
7t8,220,L,true,183,1,0,0,0,0,
7t8,221,L,true,104,1,0,1,1,1,
7t8,222,L,false,113,2,0,1,1,1,
7t8,223,L,true,42,1,0,1,1,0,
7t8,224,L,true,111,2,0,0,0,1,
7t8,225,L,true,184,2,1,0,1,1,
7t8,226,L,true,87,2,0,1,1,1,
7t8,227,L,false,480,1,1,0,1,0,
7t8,228,L,true,168,2,1,1,0,0,
7t8,229,L,true,322,2,0,1,0,0,
7t8,230,L,false,664,2,1,0,1,0,
7t8,231,L,false,359,1,0,1,0,0,
7t8,232,L,true,39,2,1,0,1,1,
7t8,233,L,true,103,1,1,0,1,1,
7t8,234,L,false,263,2,1,1,1,0,
7t8,235,L,true,2641,1,1,1,1,1,
7t8,236,L,false,279,1,0,1,0,1,
7t8,237,L,true,424,2,0,1,1,0,
7t8,238,L,true,1738,2,1,1,1,1,
7t8,239,L,false,77,1,1,1,1,1,
7t8,240,L,true,782,1,0,1,0,0,
7t8,241,L,true,191,1,0,0,1,1,
7t8,242,L,true,471,1,0,1,0,1,
7t8,243,L,false,1352,2,0,0,0,1,
7t8,244,L,true,446,1,0,1,1,1,
7t8,245,L,false,398,1,1,0,1,1,
7t8,246,L,true,759,2,0,1,1,1,
7t8,247,L,false,30,2,1,1,1,1,
7t8,248,L,true,103,1,0,0,1,1,
7t8,249,L,true,41,2,1,0,1,0,
7t8,250,L,false,0,2,0,0,0,1,
7t8,251,L,true,88,1,1,1,1,0,
7t8,252,L,true,552,2,1,1,1,0,
7t8,253,L,false,730,2,1,1,1,1,
7t8,254,L,false,652,2,0,0,0,1,
7t8,255,L,true,328,1,1,1,1,1,
7t8,256,L,true,373,1,0,1,0,0,
7t8,257,L,true,944,2,0,0,0,1,
7t8,258,L,false,2265,1,1,0,0,1,
7t8,259,L,true,639,2,0,0,1,0,
7t8,260,L,false,136,1,0,1,1,1,
7t8,261,L,false,6,1,0,0,0,0,
7t8,262,L,true,16,1,0,0,1,0,
7t8,263,L,false,232,1,1,1,1,1,
7t8,264,L,false,64,2,0,0,1,0,
7t8,265,L,true,664,1,0,0,1,0,
7t8,266,L,false,410,2,0,0,1,0,
7t8,267,L,false,712,1,1,1,1,1,
7t8,268,L,true,2697,2,1,1,1,1,
7t8,269,L,true,889,1,0,1,1,1,
7t8,270,L,false,903,2,1,0,1,1,
7t8,271,L,true,62,1,1,1,1,0,
7t8,272,L,false,465,1,0,1,1,1,
7t8,273,L,false,136,2,1,0,1,1,
7t8,274,L,true,72,2,1,1,1,0,
7t8,275,L,false,8,2,0,0,1,1,
7t8,276,L,false,40,1,1,1,1,0,
7t8,277,L,false,694,2,0,0,0,1,
7t8,278,L,true,942,1,0,1,1,1,
7t8,279,L,true,1568,2,1,0,1,1,
7t8,280,L,true,2096,2,0,0,1,0,
7t8,281,L,true,607,2,1,0,1,1,
7t8,282,L,true,560,1,0,0,1,0,
7t8,283,L,true,768,2,0,0,0,1,
7t8,284,L,false,3375,1,0,0,1,0,
7t8,285,L,false,461,2,0,1,1,1,
7t8,286,L,true,404,2,1,1,0,0,
7t8,287,L,false,1079,2,1,0,1,0,
7t8,288,L,false,2439,2,1,1,1,1,
7t8,289,L,true,681,2,0,1,0,0,
7t8,290,L,true,2159,2,0,0,1,0,
7t8,291,L,false,3024,2,1,0,0,0,
7t8,292,L,true,1971,2,0,1,0,1,
7t8,293,L,true,776,2,1,0,1,1,
7t8,294,L,true,1031,2,1,0,1,1,
7t8,295,L,true,857,2,0,0,1,1,
7t8,296,L,false,401,2,0,1,0,1,
7t8,297,L,true,2356,1,1,1,1,1,
7t8,298,L,true,1279,2,1,1,1,0,
7t8,299,L,false,1306,2,1,1,0,1,
7t8,300,L,true,429,2,0,0,1,1,
brk,brk,brk,brk,brk,brk,brk,brk,brk,brk,
7t8,301,L,false,4734,1,0,1,1,1,
7t8,302,L,false,56,1,0,1,1,1,
7t8,303,L,true,56,2,1,1,1,1,
7t8,304,L,true,112,2,0,1,1,1,
7t8,305,L,false,1015,1,0,1,1,1,
7t8,306,L,true,295,2,1,1,1,0,
7t8,307,L,true,238,2,1,0,1,1,
7t8,308,L,true,497,2,0,0,1,1,
7t8,309,L,false,289,1,0,1,1,1,
7t8,310,L,true,97,2,0,1,1,1,
7t8,311,L,true,447,2,0,0,1,0,
7t8,312,L,true,168,2,1,0,1,1,
7t8,313,L,true,63,2,1,0,1,1,
7t8,314,L,false,585,1,0,1,0,1,
7t8,315,L,true,311,2,1,0,1,1,
7t8,316,L,true,3192,2,1,0,1,0,
