subID,trialNum,cntBalance,correct,rt,winner,p1conf,p2conf,p1rslt,p2rslt
0uk,1,L,TRUE,4981,1,1,1,1,1
0uk,2,L,TRUE,3162,2,1,1,1,1
0uk,3,L,FALSE,2632,1,1,1,1,0
0uk,4,L,TRUE,1705,2,1,0,1,0
0uk,5,L,TRUE,1734,2,1,0,1,1
0uk,6,L,FALSE,1558,2,1,1,1,0
0uk,7,L,FALSE,3964,2,0,0,0,0
0uk,8,L,TRUE,1960,2,0,1,1,1
0uk,9,L,FALSE,1221,1,0,1,1,0
0uk,10,L,FALSE,1822,1,1,0,0,1
0uk,11,L,FALSE,1971,2,0,1,0,0
0uk,12,L,TRUE,1151,2,0,0,1,1
0uk,13,L,TRUE,1488,2,1,0,1,0
0uk,14,L,FALSE,2333,2,1,1,0,1
0uk,15,L,FALSE,814,1,0,0,0,0
0uk,16,L,TRUE,1184,2,1,1,1,1
0uk,17,L,TRUE,248,2,1,1,1,0
0uk,18,L,FALSE,534,1,0,1,0,0
0uk,19,L,FALSE,600,1,1,1,1,0
0uk,20,L,FALSE,2272,2,1,1,1,0
0uk,21,L,TRUE,694,2,0,0,0,1
0uk,22,L,TRUE,719,2,1,0,0,1
0uk,23,L,TRUE,761,1,1,0,1,1
0uk,24,L,FALSE,1460,1,0,1,0,0
0uk,25,L,FALSE,352,2,1,0,1,1
0uk,26,L,TRUE,397,2,1,0,1,1
0uk,27,L,FALSE,388,1,0,1,1,1
0uk,28,L,FALSE,313,2,0,1,1,0
0uk,29,L,FALSE,248,1,1,1,1,1
0uk,30,L,FALSE,619,1,0,1,1,0
0uk,31,L,FALSE,352,2,1,1,0,1
0uk,32,L,TRUE,27,2,0,0,1,1
0uk,33,L,TRUE,215,1,0,0,1,0
0uk,34,L,TRUE,658,2,1,1,1,0
0uk,35,L,TRUE,248,2,1,1,1,0
0uk,36,L,TRUE,117,1,1,1,1,1
0uk,37,L,FALSE,106,2,1,0,1,1
0uk,38,L,TRUE,454,2,0,1,1,1
0uk,39,L,FALSE,392,2,0,0,0,0
0uk,40,L,TRUE,1609,2,1,1,1,1
0uk,41,L,TRUE,553,2,1,1,0,1
0uk,42,L,FALSE,288,2,1,1,0,0
0uk,43,L,FALSE,14,1,1,0,1,1
0uk,44,L,FALSE,132,2,0,0,0,1
0uk,45,L,TRUE,498,2,0,1,1,1
0uk,46,L,FALSE,490,1,1,1,1,1
0uk,47,L,FALSE,642,1,0,1,1,1
0uk,48,L,TRUE,3029,2,1,0,1,0
0uk,49,L,FALSE,2007,2,1,1,1,1
0uk,50,L,TRUE,1066,1,0,0,1,1
0uk,51,L,TRUE,474,2,0,0,1,0
0uk,52,L,TRUE,491,1,1,1,1,1
0uk,53,L,TRUE,171,2,1,1,1,0
0uk,54,L,FALSE,85,1,1,0,0,1
0uk,55,L,TRUE,729,1,1,1,1,1
0uk,56,L,FALSE,1513,2,0,0,1,0
0uk,57,L,FALSE,348,1,1,0,1,1
0uk,58,L,FALSE,367,2,0,0,1,1
0uk,59,L,TRUE,231,2,0,1,1,0
0uk,60,L,FALSE,143,1,1,0,1,1
0uk,61,L,FALSE,192,2,1,1,1,1
0uk,62,L,TRUE,113,2,0,1,1,1
0uk,63,L,FALSE,397,2,1,1,1,1
0uk,64,L,TRUE,452,2,1,0,0,1
0uk,65,L,TRUE,473,2,1,1,1,1
0uk,66,L,TRUE,519,2,1,1,0,1
0uk,67,L,FALSE,232,2,1,0,1,1
0uk,68,L,FALSE,232,1,0,1,0,0
0uk,69,L,TRUE,152,1,0,0,1,1
0uk,70,L,TRUE,89,1,1,1,0,1
0uk,71,L,FALSE,405,2,1,0,1,1
0uk,72,L,TRUE,565,2,1,1,1,1
0uk,73,L,TRUE,1518,2,1,0,1,0
0uk,74,L,FALSE,960,1,0,1,1,1
0uk,75,L,TRUE,1344,1,0,0,1,0
0uk,76,L,FALSE,1896,1,1,0,1,0
0uk,77,L,TRUE,704,1,0,1,0,1
0uk,78,L,TRUE,181,1,0,1,1,0
0uk,79,L,FALSE,351,2,0,1,1,1
0uk,80,L,FALSE,441,1,0,1,1,0
0uk,81,L,TRUE,127,1,1,0,1,1
0uk,82,L,TRUE,188,1,1,1,1,1
0uk,83,L,FALSE,152,2,0,0,1,1
0uk,84,L,TRUE,200,2,1,1,0,1
0uk,85,L,FALSE,257,1,1,1,1,1
0uk,86,L,FALSE,52,2,0,0,1,1
0uk,87,L,TRUE,8,2,0,0,0,0
0uk,88,L,TRUE,1252,1,0,1,1,1
0uk,89,L,TRUE,124,1,0,1,1,0
0uk,90,L,TRUE,466,1,1,0,1,1
brk,brk,brk,brk,brk,brk,brk,brk,brk,brk
0uk,91,L,FALSE,2394,2,1,1,1,1
0uk,92,L,FALSE,0,1,0,1,1,1
0uk,93,L,FALSE,361,2,0,1,0,1
0uk,94,L,TRUE,216,2,1,1,1,1
0uk,95,L,FALSE,384,2,0,1,0,1
0uk,96,L,TRUE,351,2,1,0,1,0
0uk,97,L,FALSE,15,2,0,0,0,1
0uk,98,L,FALSE,280,1,0,1,0,1
0uk,99,L,FALSE,199,2,1,1,1,1
0uk,100,L,TRUE,70,2,1,0,1,0
0uk,101,L,TRUE,433,2,1,0,1,0
0uk,102,L,FALSE,250,1,0,0,1,1
0uk,103,L,FALSE,288,2,0,0,1,1
0uk,104,L,FALSE,199,2,1,1,1,1
0uk,105,L,TRUE,415,1,0,1,0,0
0uk,106,L,TRUE,161,1,0,1,1,1
0uk,107,L,FALSE,292,1,0,1,1,1
0uk,108,L,FALSE,329,1,0,0,0,1
0uk,109,L,FALSE,284,2,1,0,1,1
0uk,110,L,TRUE,793,2,0,1,1,0
0uk,111,L,TRUE,608,2,1,0,1,1
0uk,112,L,FALSE,233,1,1,0,1,0
0uk,113,L,FALSE,648,2,0,1,0,0
0uk,114,L,TRUE,144,2,1,0,1,0
0uk,115,L,FALSE,52,1,1,1,0,1
0uk,116,L,FALSE,397,2,1,1,0,1
0uk,117,L,TRUE,106,2,0,0,0,1
0uk,118,L,TRUE,442,2,0,1,0,1
0uk,119,L,FALSE,125,1,1,1,1,1
0uk,120,L,FALSE,545,2,0,1,0,1
0uk,121,L,TRUE,442,2,1,1,1,0
0uk,122,L,FALSE,24,1,1,1,1,0
0uk,123,L,FALSE,423,2,0,0,0,0
0uk,124,L,FALSE,208,1,0,1,0,0
0uk,125,L,TRUE,533,1,1,1,1,1
0uk,126,L,FALSE,433,2,0,0,1,1
0uk,127,L,FALSE,350,1,0,0,1,0
0uk,128,L,FALSE,359,2,1,0,1,1
0uk,129,L,TRUE,33,1,1,0,1,1
0uk,130,L,TRUE,153,2,0,1,0,0
0uk,131,L,TRUE,993,2,1,1,1,1
0uk,132,L,FALSE,690,2,1,1,1,0
0uk,133,L,FALSE,110,1,1,0,0,0
0uk,134,L,TRUE,33,1,1,0,1,1
0uk,135,L,TRUE,1552,1,0,0,1,0
0uk,136,L,FALSE,376,2,1,0,1,1
0uk,137,L,TRUE,473,2,1,1,1,1
0uk,138,L,FALSE,234,2,1,1,1,1
0uk,139,L,TRUE,373,2,0,0,0,1
0uk,140,L,FALSE,94,2,1,0,1,0
0uk,141,L,FALSE,49,1,1,1,1,1
0uk,142,L,TRUE,336,1,0,1,0,1
0uk,143,L,TRUE,2031,1,1,0,1,0
0uk,144,L,FALSE,799,1,0,1,1,0
0uk,145,L,FALSE,605,2,0,1,0,1
0uk,146,L,FALSE,791,1,0,0,1,1
0uk,147,L,FALSE,198,2,1,0,1,1
0uk,148,L,FALSE,436,1,0,0,0,1
0uk,149,L,TRUE,402,2,1,0,1,1
0uk,150,L,TRUE,409,2,1,0,1,1
0uk,151,L,TRUE,154,2,1,0,1,1
0uk,152,L,TRUE,164,2,1,1,1,1
0uk,153,L,FALSE,277,2,1,1,1,1
0uk,154,L,FALSE,289,1,1,1,1,1
0uk,155,L,TRUE,282,1,0,0,0,1
0uk,156,L,TRUE,139,2,0,1,1,1
0uk,157,L,TRUE,135,2,1,1,0,1
0uk,158,L,TRUE,433,2,1,0,0,1
0uk,159,L,FALSE,567,1,0,1,1,1
0uk,160,L,FALSE,200,2,0,0,0,0
0uk,161,L,TRUE,136,2,1,0,1,1
0uk,162,L,TRUE,171,2,1,0,1,1
0uk,163,L,FALSE,411,1,0,1,0,1
0uk,164,L,FALSE,121,2,0,0,1,1
0uk,165,L,FALSE,416,1,0,0,0,1
0uk,166,L,TRUE,277,1,1,1,1,1
0uk,167,L,FALSE,471,2,1,0,1,1
0uk,168,L,TRUE,125,2,0,0,1,1
0uk,169,L,FALSE,287,2,0,1,0,1
0uk,170,L,FALSE,348,1,0,1,1,1
0uk,171,L,FALSE,391,2,0,1,1,1
0uk,172,L,FALSE,1058,1,1,1,1,1
0uk,173,L,TRUE,84,1,1,1,1,1
0uk,174,L,FALSE,432,2,1,0,1,0
0uk,175,L,TRUE,398,2,1,1,0,1
0uk,176,L,FALSE,366,1,1,0,1,0
0uk,177,L,FALSE,119,2,0,0,0,1
0uk,178,L,FALSE,199,1,1,0,1,1
0uk,179,L,TRUE,71,1,0,0,1,1
0uk,180,L,TRUE,1512,1,1,1,1,1
brk,brk,brk,brk,brk,brk,brk,brk,brk,brk
0uk,181,L,FALSE,4025,2,0,0,0,0
0uk,182,L,FALSE,396,1,1,0,1,1
0uk,183,L,TRUE,266,2,0,1,0,1
0uk,184,L,FALSE,615,1,1,1,1,1
0uk,185,L,FALSE,671,2,0,0,1,1
0uk,186,L,TRUE,129,2,0,1,1,0
0uk,187,L,TRUE,542,2,0,1,0,1
0uk,188,L,FALSE,248,2,0,1,1,1
0uk,189,L,TRUE,418,2,0,1,1,1
0uk,190,L,FALSE,1244,1,1,1,0,0
0uk,191,L,TRUE,139,1,1,1,0,0
0uk,192,L,TRUE,151,1,1,0,1,1
0uk,193,L,TRUE,22,1,1,1,0,1
0uk,194,L,FALSE,124,2,0,0,1,1
0uk,195,L,TRUE,128,2,0,1,0,1
0uk,196,L,TRUE,873,2,1,1,1,1
0uk,197,L,TRUE,351,2,0,1,1,1
0uk,198,L,TRUE,400,2,1,1,1,0
0uk,199,L,TRUE,737,1,1,0,0,0
0uk,200,L,FALSE,241,2,0,0,0,1
0uk,201,L,TRUE,238,2,1,0,1,1
0uk,202,L,FALSE,16,1,0,0,1,1
0uk,203,L,FALSE,842,1,0,1,1,1
0uk,204,L,FALSE,365,2,1,1,1,1
0uk,205,L,FALSE,573,1,0,1,1,1
0uk,206,L,FALSE,143,2,0,1,1,1
0uk,207,L,FALSE,82,2,1,0,1,0
0uk,208,L,TRUE,108,1,0,1,1,1
0uk,209,L,TRUE,337,2,0,0,1,1
0uk,210,L,TRUE,173,2,0,0,0,1
0uk,211,L,FALSE,256,1,1,0,0,0
0uk,212,L,FALSE,312,2,1,1,1,0
0uk,213,L,FALSE,269,1,0,0,1,1
0uk,214,L,FALSE,12,2,1,0,1,1
0uk,215,L,TRUE,265,2,1,1,1,1
0uk,216,L,TRUE,143,2,1,1,1,1
0uk,217,L,FALSE,497,2,0,1,0,1
0uk,218,L,TRUE,405,2,0,0,1,1
0uk,219,L,FALSE,40,1,1,1,0,1
0uk,220,L,TRUE,141,1,1,0,1,1
0uk,221,L,FALSE,246,2,1,0,1,1
0uk,222,L,FALSE,337,1,0,1,0,1
0uk,223,L,FALSE,166,2,1,1,0,1
0uk,224,L,FALSE,168,1,1,1,1,0
0uk,225,L,TRUE,105,1,0,0,1,1
0uk,226,L,FALSE,474,1,1,1,1,1
0uk,227,L,TRUE,25,1,1,1,0,0
0uk,228,L,FALSE,159,2,0,0,0,0
0uk,229,L,TRUE,385,2,0,0,1,1
0uk,230,L,FALSE,72,1,0,1,1,0
0uk,231,L,TRUE,9,1,1,0,1,0
0uk,232,L,FALSE,183,2,0,0,0,1
0uk,233,L,TRUE,144,2,0,1,1,1
0uk,234,L,FALSE,36,1,0,0,1,1
0uk,235,L,TRUE,408,2,1,1,0,1
0uk,236,L,TRUE,258,1,0,1,1,1
0uk,237,L,TRUE,572,1,0,0,1,0
0uk,238,L,TRUE,463,1,0,1,0,1
0uk,239,L,TRUE,200,1,1,0,1,0
0uk,240,L,FALSE,223,2,1,0,1,1
0uk,241,L,TRUE,49,2,0,1,1,1
0uk,242,L,FALSE,129,2,0,1,1,1
0uk,243,L,TRUE,480,2,0,0,0,1
0uk,244,L,FALSE,466,1,1,0,1,1
0uk,245,L,FALSE,32,2,1,0,1,1
0uk,246,L,TRUE,275,2,0,0,1,0
0uk,247,L,TRUE,394,2,0,1,1,0
0uk,248,L,FALSE,81,2,0,0,0,1
0uk,249,L,FALSE,94,1,1,1,1,1
0uk,250,L,TRUE,339,1,0,1,0,0
0uk,251,L,FALSE,20,2,1,1,1,1
0uk,252,L,TRUE,288,2,0,1,1,1
0uk,253,L,TRUE,374,2,1,1,1,0
0uk,254,L,TRUE,232,2,1,1,1,0
0uk,255,L,TRUE,287,2,1,1,1,1
0uk,256,L,TRUE,536,2,1,0,1,1
0uk,257,L,TRUE,191,1,1,0,1,1
0uk,258,L,TRUE,188,1,1,1,1,0
0uk,259,L,FALSE,542,2,0,0,0,1
0uk,260,L,FALSE,128,1,0,1,0,1
0uk,261,L,FALSE,293,1,1,1,1,0
0uk,262,L,TRUE,285,1,1,0,1,1
0uk,263,L,TRUE,79,1,1,1,1,1
0uk,264,L,FALSE,543,2,1,1,1,1
0uk,265,L,TRUE,345,2,1,0,1,1
0uk,266,L,TRUE,1113,1,1,1,1,0
0uk,267,L,FALSE,294,1,1,0,1,1
0uk,268,L,TRUE,204,1,0,1,0,1
0uk,269,L,TRUE,505,2,0,1,1,1
0uk,270,L,TRUE,374,2,0,1,0,0
brk,brk,brk,brk,brk,brk,brk,brk,brk,brk
0uk,271,L,FALSE,4305,1,0,0,0,0
0uk,272,L,TRUE,69,1,0,1,1,1
0uk,273,L,TRUE,351,1,1,1,1,1
0uk,274,L,FALSE,43,2,0,0,0,1
0uk,275,L,TRUE,31,2,0,1,1,0
0uk,276,L,TRUE,354,1,0,0,1,1
0uk,277,L,FALSE,353,1,1,1,1,0
0uk,278,L,FALSE,458,2,1,1,1,1
0uk,279,L,FALSE,931,1,0,1,1,0
0uk,280,L,FALSE,515,2,0,1,1,1
0uk,281,L,TRUE,207,2,0,0,0,1
0uk,282,L,TRUE,257,2,0,1,1,1
0uk,283,L,FALSE,317,1,1,0,0,1
0uk,284,L,TRUE,176,1,1,1,1,1
0uk,285,L,TRUE,31,1,1,1,1,0
0uk,286,L,FALSE,81,2,1,0,1,1
0uk,287,L,FALSE,110,1,1,1,1,1
0uk,288,L,TRUE,361,1,0,1,0,1
0uk,289,L,TRUE,240,1,1,1,1,1
0uk,290,L,FALSE,375,2,0,0,0,0
0uk,291,L,FALSE,138,1,0,1,0,1
0uk,292,L,FALSE,355,2,1,0,0,0
0uk,293,L,TRUE,358,2,1,1,1,1
0uk,294,L,FALSE,422,1,0,1,1,1
0uk,295,L,FALSE,486,2,1,0,1,1
0uk,296,L,TRUE,185,2,1,1,1,0
0uk,297,L,FALSE,20,1,1,1,1,1
0uk,298,L,TRUE,126,1,0,1,0,0
0uk,299,L,FALSE,248,2,1,0,1,1
0uk,300,L,TRUE,346,2,1,1,1,0
0uk,301,L,TRUE,355,1,1,0,1,0
0uk,302,L,FALSE,309,2,0,1,1,1
0uk,303,L,TRUE,221,2,1,1,0,1
0uk,304,L,FALSE,677,1,0,0,1,0
0uk,305,L,TRUE,312,1,0,0,0,1
0uk,306,L,FALSE,98,2,0,0,1,1
0uk,307,L,TRUE,274,1,1,0,1,1
0uk,308,L,FALSE,292,2,1,0,1,0
0uk,309,L,TRUE,164,2,0,1,0,0
0uk,310,L,FALSE,125,1,1,1,0,1
0uk,311,L,TRUE,122,1,0,0,0,1
0uk,312,L,FALSE,539,2,1,1,0,1
0uk,313,L,TRUE,325,2,0,1,1,0
0uk,314,L,FALSE,192,1,0,0,0,1
0uk,315,L,TRUE,121,1,1,0,0,1
0uk,316,L,FALSE,149,2,0,1,1,1
0uk,317,L,TRUE,397,2,0,0,1,0
0uk,318,L,TRUE,248,2,0,1,0,1
0uk,319,L,FALSE,483,2,1,1,1,1
0uk,320,L,TRUE,343,2,0,1,0,1
0uk,321,L,TRUE,480,2,0,1,0,0
0uk,322,L,FALSE,863,1,0,1,1,1
0uk,323,L,TRUE,320,1,0,0,1,1
0uk,324,L,TRUE,287,1,1,1,1,1
0uk,325,L,FALSE,212,2,0,1,1,0
0uk,326,L,FALSE,291,1,1,1,0,0
0uk,327,L,FALSE,229,2,1,1,1,1
0uk,328,L,FALSE,211,1,0,1,0,1
0uk,329,L,TRUE,222,1,0,0,0,1
0uk,330,L,FALSE,56,2,1,1,1,0
0uk,331,L,TRUE,39,2,0,1,1,1
0uk,332,L,TRUE,248,2,1,1,0,0
0uk,333,L,TRUE,230,1,1,1,1,1
0uk,334,L,TRUE,393,2,0,0,1,0
0uk,335,L,FALSE,291,2,0,1,1,1
0uk,336,L,FALSE,128,1,0,1,1,1
0uk,337,L,FALSE,54,2,0,1,1,0
0uk,338,L,FALSE,193,1,0,1,0,1
0uk,339,L,FALSE,485,1,0,0,0,0
0uk,340,L,TRUE,534,2,1,0,1,0
0uk,341,L,TRUE,457,2,1,1,1,1
0uk,342,L,FALSE,276,2,0,0,1,1
0uk,343,L,FALSE,367,1,0,1,1,1
0uk,344,L,FALSE,118,1,1,0,1,1
0uk,345,L,FALSE,333,1,1,1,1,1
0uk,346,L,TRUE,31,2,0,1,1,1
0uk,347,L,FALSE,406,2,1,0,1,1
0uk,348,L,FALSE,119,1,1,0,1,1
0uk,349,L,TRUE,139,1,1,0,0,0
0uk,350,L,FALSE,387,1,1,0,1,1
0uk,351,L,FALSE,103,2,0,0,1,1
0uk,352,L,TRUE,214,1,0,0,1,0
0uk,353,L,FALSE,319,1,1,0,0,1
0uk,354,L,TRUE,36,1,1,0,1,0
0uk,355,L,TRUE,53,1,1,0,1,1
0uk,356,L,TRUE,277,1,1,1,0,0
0uk,357,L,TRUE,270,1,1,1,0,1
0uk,358,L,FALSE,284,2,1,0,1,0
0uk,359,L,TRUE,107,2,0,1,1,1
0uk,360,L,FALSE,80,2,0,0,1,1
brk,brk,brk,brk,brk,brk,brk,brk,brk,brk
0uk,361,L,FALSE,903,2,0,1,1,1
0uk,362,L,TRUE,158,2,1,1,1,1
0uk,363,L,FALSE,12,2,0,0,1,0
0uk,364,L,TRUE,339,2,0,0,0,1
0uk,365,L,FALSE,90,2,1,1,1,1
0uk,366,L,TRUE,416,1,1,0,1,1
0uk,367,L,TRUE,760,2,0,1,0,1
0uk,368,L,FALSE,327,1,0,1,0,1
0uk,369,L,FALSE,293,2,0,1,0,1
0uk,370,L,FALSE,290,2,0,1,0,1
0uk,371,L,FALSE,131,1,1,1,0,1
0uk,372,L,TRUE,285,1,1,1,1,0
0uk,373,L,TRUE,94,1,1,1,1,0
0uk,374,L,FALSE,48,2,0,1,1,1
0uk,375,L,FALSE,588,1,0,0,0,1
0uk,376,L,TRUE,360,2,0,1,1,0
0uk,377,L,TRUE,1093,1,1,0,1,0
0uk,378,L,FALSE,425,1,0,1,1,1
0uk,379,L,TRUE,514,2,0,1,0,1
0uk,380,L,FALSE,164,1,0,1,1,0
0uk,381,L,FALSE,418,2,0,0,0,1
0uk,382,L,FALSE,72,1,1,1,1,1
0uk,383,L,TRUE,175,2,0,1,1,1
0uk,384,L,FALSE,279,2,0,1,0,1
0uk,385,L,TRUE,37,2,1,0,1,1
0uk,386,L,FALSE,120,1,1,0,1,1
0uk,387,L,FALSE,73,1,0,1,0,1
0uk,388,L,FALSE,1198,2,1,1,1,0
0uk,389,L,FALSE,483,2,0,1,1,1
0uk,390,L,TRUE,303,2,0,1,1,1
0uk,391,L,TRUE,1398,1,1,0,0,1
0uk,392,L,TRUE,823,1,1,0,1,0
0uk,393,L,TRUE,1657,1,1,0,1,1
0uk,394,L,FALSE,2300,2,1,0,1,0
0uk,395,L,FALSE,52,1,0,1,1,1
0uk,396,L,FALSE,1119,2,0,1,1,0
0uk,397,L,FALSE,1534,1,1,0,0,1
0uk,398,L,FALSE,120,2,0,1,1,1
0uk,399,L,TRUE,134,1,1,0,1,1
0uk,400,L,FALSE,347,1,0,1,0,0
0uk,401,L,TRUE,134,1,1,1,0,0
0uk,402,L,TRUE,439,1,0,1,0,1
0uk,403,L,TRUE,200,1,0,1,1,1
0uk,404,L,TRUE,184,1,1,0,1,1
0uk,405,L,TRUE,182,2,0,1,1,1
0uk,406,L,FALSE,18,1,0,1,1,1
0uk,407,L,TRUE,687,1,0,0,0,0
0uk,408,L,FALSE,284,1,0,1,1,1
0uk,409,L,FALSE,328,2,1,0,1,0
0uk,410,L,FALSE,126,1,0,1,0,1
0uk,411,L,FALSE,301,2,0,0,1,0
0uk,412,L,FALSE,393,2,1,1,1,0
0uk,413,L,FALSE,140,1,0,0,1,1
0uk,414,L,FALSE,369,2,1,0,0,1
0uk,415,L,FALSE,453,1,0,0,1,0
0uk,416,L,FALSE,45,2,0,0,1,1
0uk,417,L,FALSE,105,1,1,1,1,1
0uk,418,L,FALSE,267,2,0,1,1,0
0uk,419,L,FALSE,433,1,0,1,1,1
0uk,420,L,TRUE,270,1,1,1,1,0
0uk,421,L,FALSE,301,2,1,1,0,1
0uk,422,L,TRUE,459,2,1,0,1,1
0uk,423,L,TRUE,7,1,1,1,1,1
0uk,424,L,FALSE,501,2,0,0,1,0
0uk,425,L,TRUE,624,1,0,1,0,1
0uk,426,L,FALSE,90,1,1,1,1,1
0uk,427,L,TRUE,59,1,1,0,1,1
0uk,428,L,TRUE,240,2,0,1,1,1
0uk,429,L,TRUE,903,2,0,0,1,1
0uk,430,L,TRUE,896,1,1,1,1,1
0uk,431,L,FALSE,318,2,1,0,1,1
0uk,432,L,TRUE,86,2,0,1,1,1
0uk,433,L,TRUE,237,1,0,0,0,0
0uk,434,L,FALSE,35,2,0,0,1,1
0uk,435,L,FALSE,462,1,1,0,1,1
0uk,436,L,TRUE,31,2,1,1,1,1
0uk,437,L,TRUE,350,1,1,1,1,0
0uk,438,L,TRUE,31,1,1,1,0,1
0uk,439,L,TRUE,206,2,0,1,1,1
0uk,440,L,TRUE,40,1,0,0,1,1
0uk,441,L,FALSE,85,2,1,1,1,1
0uk,442,L,TRUE,326,2,0,0,0,0
0uk,443,L,FALSE,364,1,1,1,0,1
0uk,444,L,TRUE,664,1,0,1,0,1
0uk,445,L,TRUE,1315,2,1,1,0,0
0uk,446,L,TRUE,276,1,0,1,1,1
0uk,447,L,TRUE,460,1,1,1,1,1
0uk,448,L,FALSE,575,1,1,0,1,1
0uk,449,L,FALSE,486,2,0,0,1,1
0uk,450,L,TRUE,167,2,1,1,1,1
subID,trialNum,cntBalance,correct,rt,winner,p1conf,p2conf,p1rslt,p2rslt
aya,1,L,TRUE,2311,2,0,1,0,1
aya,2,L,FALSE,2132,1,1,0,0,1
aya,3,L,FALSE,1577,1,1,1,0,0
aya,4,L,TRUE,1491,1,1,0,1,1
aya,5,L,FALSE,2575,2,1,0,0,1
aya,6,L,TRUE,2260,2,1,1,1,1
aya,7,L,TRUE,2326,2,0,0,1,1
aya,8,L,TRUE,1125,1,1,1,1,1
aya,9,L,FALSE,1721,2,1,1,1,0
aya,10,L,TRUE,1598,1,1,0,1,0
aya,11,L,TRUE,1050,1,1,1,1,1
aya,12,L,TRUE,1467,2,0,1,1,1
aya,13,L,TRUE,1152,1,0,0,0,1
aya,14,L,TRUE,919,1,1,1,1,1
aya,15,L,TRUE,1297,2,0,0,1,1
aya,16,L,TRUE,1005,1,1,1,1,1
aya,17,L,TRUE,813,1,1,1,1,1
aya,18,L,TRUE,871,2,0,1,1,1
aya,19,L,TRUE,878,1,0,0,0,1
aya,20,L,TRUE,1006,2,1,0,1,1
aya,21,L,FALSE,1060,1,0,0,0,1
aya,22,L,TRUE,1016,1,1,1,1,1
aya,23,L,TRUE,792,1,1,1,1,1
aya,24,L,FALSE,788,2,1,1,1,0
aya,25,L,TRUE,1176,1,1,1,1,1
aya,26,L,TRUE,812,2,0,0,1,1
aya,27,L,FALSE,335,2,1,0,0,1
aya,28,L,FALSE,1015,2,1,1,0,1
aya,29,L,TRUE,899,1,0,0,1,1
aya,30,L,TRUE,831,2,1,0,0,1
aya,31,L,FALSE,1325,2,1,0,1,1
aya,32,L,FALSE,1904,1,0,0,1,1
aya,33,L,TRUE,911,1,0,0,1,1
aya,34,L,TRUE,1159,2,1,1,1,0
aya,35,L,TRUE,630,2,0,0,0,1
aya,36,L,FALSE,685,2,1,1,0,1
aya,37,L,TRUE,309,2,0,1,0,1
aya,38,L,TRUE,793,2,1,0,1,1
aya,39,L,TRUE,2199,2,0,0,0,1
aya,40,L,TRUE,1166,2,0,1,1,1
aya,41,L,FALSE,1166,1,0,1,1,0
aya,42,L,TRUE,989,1,1,0,0,1
aya,43,L,TRUE,658,1,1,1,1,1
aya,44,L,TRUE,755,2,0,1,0,1
aya,45,L,TRUE,890,1,0,1,1,0
aya,46,L,FALSE,944,1,1,1,1,0
aya,47,L,TRUE,371,1,1,0,1,1
aya,48,L,FALSE,72,1,1,0,1,0
aya,49,L,TRUE,1007,1,1,1,0,1
aya,50,L,TRUE,1183,2,1,0,1,0
aya,51,L,TRUE,1183,1,1,0,1,0
aya,52,L,FALSE,1004,1,1,1,0,1
aya,53,L,TRUE,1129,1,0,0,1,1
aya,54,L,FALSE,2069,1,1,0,1,1
aya,55,L,TRUE,1048,2,1,1,1,1
aya,56,L,FALSE,1447,1,0,1,1,1
aya,57,L,FALSE,308,2,0,0,1,1
aya,58,L,FALSE,742,2,0,0,0,0
aya,59,L,FALSE,1039,1,1,0,1,0
aya,60,L,FALSE,1211,2,1,0,0,1
aya,61,L,FALSE,616,2,0,0,0,0
aya,62,L,FALSE,1047,2,0,0,1,1
aya,63,L,TRUE,958,1,0,0,1,1
aya,64,L,TRUE,977,1,1,1,1,1
aya,65,L,TRUE,751,1,0,0,1,1
aya,66,L,TRUE,775,1,1,1,1,1
aya,67,L,TRUE,1302,1,1,0,1,0
aya,68,L,TRUE,908,2,0,1,0,1
aya,69,L,FALSE,950,2,0,1,0,0
aya,70,L,FALSE,2214,1,0,0,0,1
aya,71,L,TRUE,710,1,0,1,1,1
aya,72,L,TRUE,767,1,0,0,0,1
aya,73,L,TRUE,791,2,0,0,1,1
aya,74,L,TRUE,858,1,1,1,1,0
aya,75,L,FALSE,1123,1,1,1,1,1
aya,76,L,TRUE,821,2,0,1,1,0
aya,77,L,TRUE,950,2,1,1,1,0
aya,78,L,TRUE,869,1,1,0,1,1
aya,79,L,FALSE,751,2,0,0,0,0
aya,80,L,TRUE,2334,2,0,1,0,1
aya,81,L,TRUE,1698,1,0,0,1,1
aya,82,L,TRUE,2918,1,0,0,0,1
aya,83,L,TRUE,1333,1,0,0,1,1
aya,84,L,FALSE,2217,2,1,0,1,0
aya,85,L,TRUE,1338,2,0,0,1,1
aya,86,L,TRUE,1670,1,1,0,1,1
aya,87,L,TRUE,2490,1,0,0,1,0
aya,88,L,TRUE,2142,2,1,0,1,1
aya,89,L,TRUE,1156,1,1,0,1,1
aya,90,L,TRUE,1190,1,1,1,1,1
aya,91,L,TRUE,987,1,1,0,1,1
aya,92,L,TRUE,1167,2,1,1,1,1
aya,93,L,TRUE,791,1,1,0,1,1
aya,94,L,TRUE,2955,1,0,0,1,0
aya,95,L,TRUE,1768,2,0,0,1,0
aya,96,L,TRUE,1415,2,0,0,1,1
aya,97,L,TRUE,1932,1,0,0,1,0
aya,98,L,FALSE,1710,1,1,1,1,0
aya,99,L,FALSE,1344,2,0,0,0,1
aya,100,L,TRUE,1182,1,1,1,1,1
brk,brk,brk,brk,brk,brk,brk,brk,brk,brk
aya,101,L,FALSE,2862,2,0,1,0,0
aya,102,L,TRUE,4442,1,1,1,1,0
aya,103,L,TRUE,2236,1,1,0,1,0
aya,104,L,TRUE,11013,1,0,0,1,1
aya,105,L,TRUE,1517,2,1,0,1,1
aya,106,L,FALSE,605,2,1,0,0,0
aya,107,L,FALSE,2409,1,0,1,0,1
aya,108,L,TRUE,948,2,1,1,1,0
aya,109,L,TRUE,2003,2,0,0,1,0
aya,110,L,TRUE,1399,2,1,1,1,1
aya,111,L,TRUE,882,1,1,0,1,1
aya,112,L,FALSE,1387,1,1,0,0,0
aya,113,L,TRUE,1472,2,0,1,1,1
aya,114,L,TRUE,1686,1,0,1,1,0
aya,115,L,FALSE,1256,1,0,0,0,1
aya,116,L,TRUE,1066,2,0,0,1,1
aya,117,L,TRUE,1138,1,1,0,1,1
aya,118,L,TRUE,869,1,1,1,1,0
aya,119,L,TRUE,558,2,1,1,1,1
aya,120,L,TRUE,697,1,1,1,1,0
aya,121,L,TRUE,668,1,1,0,1,0
aya,122,L,TRUE,616,1,1,0,1,0
aya,123,L,TRUE,639,2,1,0,1,0
aya,124,L,TRUE,642,1,1,0,1,1
aya,125,L,TRUE,939,2,1,0,1,1
aya,126,L,TRUE,519,1,1,1,1,1
aya,127,L,TRUE,679,1,1,1,1,1
aya,128,L,TRUE,592,2,1,1,1,1
aya,129,L,TRUE,515,1,0,0,1,0
aya,130,L,TRUE,638,2,0,1,1,0
aya,131,L,FALSE,608,1,0,1,0,1
aya,132,L,FALSE,732,1,1,1,0,0
aya,133,L,FALSE,621,1,1,1,0,1
aya,134,L,TRUE,518,2,1,0,1,1
aya,135,L,FALSE,1426,2,1,1,0,1
aya,136,L,TRUE,1300,1,1,0,1,1
aya,137,L,FALSE,1483,1,0,1,0,0
aya,138,L,TRUE,626,1,1,0,1,1
aya,139,L,TRUE,544,2,1,1,1,1
aya,140,L,FALSE,496,2,0,0,0,1
aya,141,L,TRUE,703,2,0,1,1,1
aya,142,L,FALSE,1017,1,1,0,0,1
aya,143,L,TRUE,574,1,1,1,1,1
aya,144,L,TRUE,724,1,1,1,1,1
aya,145,L,FALSE,599,2,0,1,0,0
aya,146,L,FALSE,650,2,0,0,0,1
aya,147,L,TRUE,616,2,0,0,1,0
aya,148,L,FALSE,703,1,0,1,0,1
aya,149,L,TRUE,88,1,1,0,1,1
aya,150,L,TRUE,3761,2,1,1,1,0
aya,151,L,FALSE,1060,1,0,1,1,0
aya,152,L,TRUE,1175,2,0,0,1,1
aya,153,L,TRUE,2440,2,1,0,1,1
aya,154,L,TRUE,2685,1,1,0,1,0
aya,155,L,TRUE,712,2,1,0,1,0
aya,156,L,TRUE,1265,1,0,0,1,1
aya,157,L,FALSE,1901,1,0,0,0,0
aya,158,L,FALSE,1192,1,1,0,0,1
aya,159,L,TRUE,920,1,1,1,1,1
aya,160,L,TRUE,784,2,1,1,0,1
aya,161,L,TRUE,706,1,1,1,1,1
aya,162,L,FALSE,1157,2,0,1,0,1
aya,163,L,FALSE,718,2,1,0,0,1
aya,164,L,FALSE,696,1,1,0,1,0
aya,165,L,TRUE,764,1,1,1,1,1
aya,166,L,TRUE,50,1,0,1,0,0
aya,167,L,FALSE,908,1,1,0,0,0
aya,168,L,TRUE,967,1,0,0,1,1
aya,169,L,FALSE,1999,2,1,0,1,1
aya,170,L,FALSE,1084,2,1,1,1,0
aya,171,L,TRUE,905,2,1,1,1,1
aya,172,L,TRUE,934,2,0,0,1,1
aya,173,L,TRUE,1012,2,1,0,1,1
aya,174,L,TRUE,1448,2,0,1,0,1
aya,175,L,FALSE,729,2,0,0,0,1
aya,176,L,FALSE,1200,1,0,0,0,1
aya,177,L,FALSE,608,1,0,1,0,0
aya,178,L,FALSE,703,2,0,1,0,0
aya,179,L,TRUE,956,1,1,0,1,0
aya,180,L,TRUE,659,1,1,1,1,1
aya,181,L,TRUE,1008,1,1,0,1,1
aya,182,L,TRUE,1303,1,1,1,1,0
aya,183,L,TRUE,565,1,1,0,1,1
aya,184,L,FALSE,795,2,0,1,0,0
aya,185,L,FALSE,60,2,0,1,0,0
aya,186,L,TRUE,1001,2,1,0,1,1
aya,187,L,FALSE,863,1,0,0,0,1
aya,188,L,TRUE,962,2,1,1,1,1
aya,189,L,TRUE,555,2,1,1,1,1
aya,190,L,TRUE,670,1,0,0,1,1
aya,191,L,TRUE,676,1,1,0,1,1
aya,192,L,FALSE,675,2,0,0,1,1
aya,193,L,TRUE,722,2,0,0,1,1
aya,194,L,TRUE,646,1,1,0,1,1
aya,195,L,TRUE,632,1,0,1,1,1
aya,196,L,FALSE,1225,2,0,0,0,1
aya,197,L,TRUE,625,1,0,1,1,1
aya,198,L,TRUE,685,1,1,0,1,1
aya,199,L,TRUE,1120,2,0,1,1,1
aya,200,L,TRUE,913,1,1,1,1,0
brk,brk,brk,brk,brk,brk,brk,brk,brk,brk
aya,201,L,TRUE,1482,2,1,0,1,1
aya,202,L,FALSE,1080,1,0,0,1,0
aya,203,L,TRUE,545,2,0,1,1,1
aya,204,L,FALSE,757,1,0,0,0,1
aya,205,L,TRUE,758,2,1,1,1,1
aya,206,L,TRUE,702,1,0,0,1,1
aya,207,L,TRUE,1248,2,0,1,0,1
aya,208,L,FALSE,5888,2,0,0,0,0
aya,209,L,TRUE,3029,2,1,0,1,1
aya,210,L,TRUE,662,1,0,1,1,1
aya,211,L,TRUE,942,1,0,0,1,1
aya,212,L,FALSE,767,1,0,1,0,1
aya,213,L,TRUE,744,2,0,0,1,1
aya,214,L,TRUE,1161,2,1,1,1,0
aya,215,L,TRUE,593,2,0,1,1,1
aya,216,L,TRUE,560,2,1,1,1,0
aya,217,L,TRUE,731,2,0,1,1,1
aya,218,L,TRUE,1015,2,0,1,1,1
aya,219,L,TRUE,1235,1,1,1,1,1
aya,220,L,TRUE,482,2,1,0,1,0
aya,221,L,TRUE,741,2,0,0,1,1
aya,222,L,FALSE,664,1,0,1,0,0
aya,223,L,TRUE,951,2,0,0,1,1
aya,224,L,FALSE,1013,1,1,1,0,1
aya,225,L,TRUE,1352,1,0,0,1,1
aya,226,L,TRUE,1617,1,0,1,0,1
aya,227,L,FALSE,1136,2,0,1,0,1
aya,228,L,TRUE,584,2,0,1,1,1
aya,229,L,FALSE,487,2,1,0,0,0
aya,230,L,FALSE,95,1,0,1,1,0
aya,231,L,TRUE,260,2,1,0,1,1
aya,232,L,TRUE,472,1,1,0,1,1
aya,233,L,FALSE,430,2,1,0,1,1
aya,234,L,TRUE,889,2,1,1,1,0
aya,235,L,FALSE,696,2,1,1,0,1
aya,236,L,FALSE,1056,1,0,1,1,0
aya,237,L,TRUE,692,2,1,0,1,1
aya,238,L,TRUE,571,2,0,0,1,0
aya,239,L,TRUE,680,1,1,1,1,1
aya,240,L,TRUE,536,2,0,1,1,1
aya,241,L,TRUE,584,1,1,0,1,1
aya,242,L,FALSE,608,1,1,0,0,1
aya,243,L,TRUE,648,1,1,0,1,1
aya,244,L,TRUE,448,2,1,1,1,0
aya,245,L,TRUE,1046,1,1,1,1,1
aya,246,L,TRUE,600,2,0,0,1,1
aya,247,L,TRUE,773,1,0,1,1,1
aya,248,L,FALSE,756,2,0,1,0,1
aya,249,L,TRUE,1412,2,0,0,1,1
aya,250,L,TRUE,777,2,1,0,1,1
aya,251,L,TRUE,1570,2,0,1,1,1
aya,252,L,FALSE,1624,1,1,1,0,1
aya,253,L,TRUE,1719,2,0,0,1,1
aya,254,L,TRUE,2168,1,1,1,0,1
aya,255,L,TRUE,1032,1,1,0,1,1
aya,256,L,TRUE,1685,2,0,1,1,1
aya,257,L,TRUE,1097,1,1,1,1,1
aya,258,L,TRUE,1263,2,0,0,1,1
aya,259,L,TRUE,2168,1,1,1,1,0
aya,260,L,TRUE,1095,2,0,0,1,1
aya,261,L,FALSE,1600,2,1,0,1,0
aya,262,L,TRUE,1675,1,1,1,1,1
aya,263,L,FALSE,3732,1,0,0,0,1
aya,264,L,TRUE,1502,2,0,1,0,1
aya,265,L,TRUE,1308,1,0,1,0,1
aya,266,L,FALSE,858,2,0,1,1,0
aya,267,L,FALSE,940,2,0,1,0,0
aya,268,L,TRUE,966,1,1,1,1,1
aya,269,L,TRUE,1334,2,0,0,1,1
aya,270,L,TRUE,1688,2,1,0,1,0
aya,271,L,FALSE,2433,2,0,1,1,0
aya,272,L,TRUE,2144,1,0,0,1,0
aya,273,L,FALSE,2061,1,0,0,0,1
aya,274,L,TRUE,689,1,0,0,1,1
aya,275,L,TRUE,1621,1,1,0,1,1
aya,276,L,TRUE,848,2,0,0,0,1
aya,277,L,FALSE,1023,1,0,1,1,0
aya,278,L,TRUE,1135,2,0,1,0,1
aya,279,L,FALSE,1328,2,1,1,1,0
aya,280,L,FALSE,332,2,1,1,1,1
aya,281,L,TRUE,983,2,1,1,1,1
aya,282,L,TRUE,675,2,1,0,1,1
aya,283,L,FALSE,696,2,0,1,0,0
aya,284,L,TRUE,1248,2,0,1,1,0
aya,285,L,FALSE,745,2,0,1,0,0
aya,286,L,TRUE,1328,2,1,0,1,0
aya,287,L,FALSE,863,1,1,1,1,0
aya,288,L,TRUE,600,2,0,1,1,0
aya,289,L,TRUE,665,2,1,1,1,1
aya,290,L,TRUE,868,2,0,1,0,1
aya,291,L,FALSE,888,1,1,0,1,0
aya,292,L,TRUE,724,1,1,1,1,1
aya,293,L,FALSE,1182,1,0,1,0,1
aya,294,L,TRUE,503,2,0,1,1,0
aya,295,L,FALSE,756,1,1,0,0,1
aya,296,L,TRUE,427,1,1,0,1,0
aya,297,L,FALSE,1073,2,0,0,0,1
aya,298,L,FALSE,845,1,0,0,1,0
aya,299,L,TRUE,717,1,0,1,1,1
aya,300,L,TRUE,821,2,1,1,0,1
brk,brk,brk,brk,brk,brk,brk,brk,brk,brk
aya,301,L,TRUE,2636,2,0,1,1,0
aya,302,L,TRUE,733,2,0,1,0,1
aya,303,L,TRUE,903,2,1,0,1,1
aya,304,L,FALSE,1017,1,0,1,1,0
aya,305,L,TRUE,1400,1,1,1,1,0
aya,306,L,FALSE,615,1,0,0,1,0
aya,307,L,TRUE,582,2,0,1,1,1
aya,308,L,FALSE,1110,2,0,0,1,0
aya,309,L,TRUE,723,1,1,1,1,1
aya,310,L,FALSE,1542,2,0,1,0,1
aya,311,L,FALSE,1027,1,0,0,0,1
aya,312,L,TRUE,1080,2,0,0,0,1
aya,313,L,FALSE,710,2,0,1,0,0
aya,314,L,TRUE,848,1,0,1,1,1
aya,315,L,TRUE,566,1,0,1,1,1
aya,316,L,TRUE,502,1,0,0,1,1
aya,317,L,TRUE,623,2,0,0,1,1
aya,318,L,TRUE,674,1,1,1,1,1
aya,319,L,FALSE,1485,1,0,0,0,1
aya,320,L,TRUE,513,1,0,0,1,1
aya,321,L,TRUE,1019,2,1,1,1,1
aya,322,L,TRUE,558,2,1,1,1,1
aya,323,L,TRUE,489,1,1,0,1,1
aya,324,L,FALSE,806,1,1,0,1,0
aya,325,L,FALSE,791,1,0,1,0,1
aya,326,L,FALSE,709,1,0,1,0,1
aya,327,L,TRUE,584,1,1,1,1,1
aya,328,L,TRUE,616,2,1,0,1,1
aya,329,L,TRUE,553,2,0,1,1,1
aya,330,L,TRUE,458,1,1,1,1,1
aya,331,L,TRUE,649,2,1,0,1,1
aya,332,L,FALSE,1284,1,0,1,0,1
aya,333,L,TRUE,1558,2,0,0,1,0
aya,334,L,FALSE,431,2,0,0,0,1
aya,335,L,FALSE,597,1,1,1,0,1
aya,336,L,TRUE,660,1,1,1,1,1
aya,337,L,TRUE,593,1,0,1,1,1
aya,338,L,TRUE,847,1,0,1,1,0
aya,339,L,FALSE,693,2,0,1,0,1
aya,340,L,TRUE,735,1,1,1,1,1
aya,341,L,FALSE,1151,1,0,0,0,1
aya,342,L,TRUE,693,1,0,0,1,1
aya,343,L,FALSE,632,2,0,0,0,0
aya,344,L,FALSE,2142,1,1,1,1,0
aya,345,L,TRUE,1318,2,0,1,1,1
aya,346,L,TRUE,1535,1,1,0,1,1
aya,347,L,TRUE,1368,1,0,1,1,1
aya,348,L,TRUE,1119,2,1,0,1,1
aya,349,L,FALSE,1275,2,0,0,1,1
aya,350,L,TRUE,1426,2,0,1,0,1
aya,351,L,FALSE,1645,1,0,0,1,0
aya,352,L,FALSE,1015,1,0,1,1,0
aya,353,L,TRUE,710,1,0,1,1,0
aya,354,L,TRUE,607,1,0,1,1,1
aya,355,L,TRUE,1412,2,1,0,1,1
aya,356,L,TRUE,616,1,0,0,1,1
aya,357,L,TRUE,592,2,1,0,1,1
aya,358,L,TRUE,1065,2,0,0,0,1
aya,359,L,TRUE,683,2,0,1,1,0
aya,360,L,TRUE,599,2,0,0,1,1
aya,361,L,TRUE,542,1,1,0,1,1
aya,362,L,TRUE,679,2,0,1,1,0
aya,363,L,TRUE,581,2,1,0,1,1
aya,364,L,TRUE,1117,1,0,0,1,1
aya,365,L,TRUE,711,2,0,0,1,1
aya,366,L,FALSE,915,1,1,1,0,1
aya,367,L,TRUE,540,2,0,0,1,0
aya,368,L,TRUE,559,2,1,1,1,1
aya,369,L,FALSE,519,1,1,1,0,0
aya,370,L,FALSE,648,2,0,0,0,0
aya,371,L,FALSE,632,1,0,0,0,0
aya,372,L,TRUE,854,1,1,1,1,0
aya,373,L,TRUE,663,1,0,1,1,1
aya,374,L,TRUE,550,1,1,1,1,1
aya,375,L,TRUE,1049,2,1,0,1,0
aya,376,L,FALSE,742,1,0,0,1,0
aya,377,L,TRUE,583,2,0,0,1,1
aya,378,L,TRUE,618,1,1,1,1,1
aya,379,L,TRUE,806,2,0,0,1,0
aya,380,L,TRUE,917,1,1,0,1,0
aya,381,L,FALSE,990,1,0,1,0,1
aya,382,L,TRUE,550,1,1,0,1,1
aya,383,L,TRUE,616,1,1,0,1,1
aya,384,L,FALSE,744,2,1,0,0,0
aya,385,L,TRUE,875,2,1,0,1,1
aya,386,L,TRUE,602,1,0,1,1,1
aya,387,L,TRUE,1158,1,1,1,1,1
aya,388,L,FALSE,1199,1,1,0,0,0
aya,389,L,TRUE,1108,2,1,0,1,0
aya,390,L,FALSE,598,2,0,1,0,0
aya,391,L,FALSE,625,1,0,0,0,1
aya,392,L,TRUE,632,2,1,1,1,0
aya,393,L,TRUE,690,1,1,1,1,0
aya,394,L,TRUE,544,2,1,1,1,1
aya,395,L,FALSE,1057,1,0,1,0,1
aya,396,L,TRUE,534,2,1,0,1,1
aya,397,L,TRUE,727,1,1,1,1,1
aya,398,L,TRUE,661,1,0,1,1,1
aya,399,L,FALSE,734,2,0,1,0,1
aya,400,L,FALSE,696,2,0,1,0,1
brk,brk,brk,brk,brk,brk,brk,brk,brk,brk
aya,401,L,TRUE,1991,1,1,0,1,1
aya,402,L,TRUE,1084,1,1,1,1,0
aya,403,L,TRUE,594,2,1,0,1,0
aya,404,L,FALSE,641,1,0,1,0,1
aya,405,L,TRUE,550,2,0,1,1,1
aya,406,L,FALSE,782,2,0,0,0,1
aya,407,L,FALSE,613,1,1,1,0,1
aya,408,L,TRUE,701,2,0,1,1,0
aya,409,L,TRUE,582,2,0,0,1,0
aya,410,L,FALSE,640,2,0,1,0,1
aya,411,L,TRUE,506,1,0,1,1,0
aya,412,L,FALSE,587,1,0,1,0,1
aya,413,L,TRUE,511,1,1,0,1,0
aya,414,L,TRUE,517,2,1,0,1,1
aya,415,L,TRUE,546,2,1,1,1,1
aya,416,L,FALSE,515,1,1,1,0,0
aya,417,L,TRUE,493,2,1,0,1,1
aya,418,L,TRUE,490,2,0,0,1,1
aya,419,L,FALSE,1016,2,0,0,0,1
aya,420,L,FALSE,587,2,0,1,0,0
aya,421,L,TRUE,979,1,0,0,1,1
aya,422,L,FALSE,771,1,0,0,0,0
aya,423,L,TRUE,1068,1,0,0,1,1
aya,424,L,TRUE,727,1,1,1,1,1
aya,425,L,TRUE,512,1,0,1,1,1
aya,426,L,FALSE,494,2,0,1,0,1
aya,427,L,TRUE,452,1,0,0,1,1
aya,428,L,FALSE,518,2,0,1,0,0
aya,429,L,TRUE,464,1,1,1,1,1
aya,430,L,TRUE,799,1,1,1,1,0
aya,431,L,FALSE,669,2,0,1,0,1
aya,432,L,TRUE,711,2,0,1,1,1
aya,433,L,TRUE,858,2,1,1,0,1
aya,434,L,TRUE,554,2,1,1,1,1
aya,435,L,TRUE,607,1,1,1,1,1
aya,436,L,TRUE,597,2,1,0,1,1
aya,437,L,FALSE,945,1,1,0,1,0
aya,438,L,FALSE,576,1,1,0,0,1
aya,439,L,TRUE,636,2,0,1,1,1
aya,440,L,TRUE,688,2,1,0,1,1
aya,441,L,TRUE,686,1,0,1,1,1
aya,442,L,FALSE,600,2,1,1,0,1
aya,443,L,TRUE,739,2,1,1,1,1
aya,444,L,FALSE,949,2,1,0,0,1
aya,445,L,TRUE,708,2,1,0,1,0
aya,446,L,FALSE,752,2,1,0,0,1
aya,447,L,TRUE,778,1,1,1,1,1
aya,448,L,TRUE,658,2,0,1,1,1
aya,449,L,TRUE,557,1,0,1,1,1
aya,450,L,TRUE,550,2,0,0,1,1
aya,451,L,TRUE,496,1,0,1,1,1
aya,452,L,FALSE,548,2,0,1,0,1
aya,453,L,TRUE,485,2,0,1,1,1
aya,454,L,TRUE,775,2,1,0,1,0
aya,455,L,FALSE,652,2,0,0,0,1
aya,456,L,TRUE,1622,1,1,1,1,0
aya,457,L,TRUE,596,2,0,1,1,1
aya,458,L,TRUE,1276,1,1,0,1,0
aya,459,L,TRUE,519,2,1,0,1,0
aya,460,L,TRUE,463,2,1,0,1,1
aya,461,L,TRUE,598,1,1,1,1,1
aya,462,L,FALSE,542,1,0,0,0,1
aya,463,L,TRUE,551,1,1,1,1,1
aya,464,L,TRUE,460,1,1,0,1,1
aya,465,L,FALSE,472,1,1,1,0,1
aya,466,L,TRUE,476,2,1,1,1,1
aya,467,L,TRUE,447,2,0,1,1,1
aya,468,L,FALSE,559,1,1,1,0,0
aya,469,L,TRUE,541,2,1,0,1,1
aya,470,L,TRUE,611,2,1,1,1,1
aya,471,L,TRUE,571,1,1,0,1,1
aya,472,L,TRUE,440,1,1,1,1,1
aya,473,L,TRUE,518,2,0,1,1,1
aya,474,L,FALSE,529,2,0,1,0,0
aya,475,L,TRUE,541,2,1,1,1,1
aya,476,L,TRUE,659,2,1,1,1,1
aya,477,L,TRUE,582,1,1,1,1,1
aya,478,L,TRUE,570,2,0,0,1,0
aya,479,L,TRUE,485,2,0,0,1,1
aya,480,L,TRUE,738,1,0,0,1,1
aya,481,L,TRUE,511,2,0,1,1,1
aya,482,L,TRUE,469,1,0,1,1,0
aya,483,L,TRUE,503,1,0,1,1,1
aya,484,L,TRUE,1182,1,1,0,1,0
aya,485,L,TRUE,1014,1,1,0,1,0
aya,486,L,TRUE,1204,2,0,0,1,1
aya,487,L,TRUE,665,2,0,1,1,0
aya,488,L,TRUE,631,1,1,0,1,1
aya,489,L,FALSE,803,2,0,0,0,1
aya,490,L,FALSE,1295,1,1,1,0,1
aya,491,L,FALSE,1984,2,0,0,0,0
aya,492,L,TRUE,2584,1,1,0,1,1
aya,493,L,TRUE,1858,1,1,1,1,0
aya,494,L,TRUE,1709,2,0,0,1,1
aya,495,L,TRUE,716,1,0,1,0,0
aya,496,L,FALSE,2264,1,1,0,0,0
aya,497,L,FALSE,2252,1,0,0,0,0
aya,498,L,FALSE,1045,1,0,1,0,1
aya,499,L,TRUE,894,2,1,0,1,1
aya,500,L,TRUE,1956,1,1,1,1,1
subID,trialNum,cntBalance,correct,rt,winner,p1conf,p2conf,p1rslt,p2rslt
ga4,1,L,TRUE,5020,1,1,1,1,1
ga4,2,L,TRUE,5205,2,0,1,0,0
ga4,3,L,TRUE,6559,2,0,1,0,0
ga4,4,L,TRUE,5173,1,1,0,1,1
ga4,5,L,TRUE,11099,2,0,1,1,1
ga4,6,L,TRUE,3141,1,1,0,1,1
ga4,7,L,TRUE,7442,1,0,1,0,1
ga4,8,L,TRUE,6502,1,0,0,1,0
ga4,9,L,TRUE,9374,2,0,1,0,1
ga4,10,L,TRUE,2123,1,1,0,1,1
ga4,11,L,FALSE,3423,1,0,1,1,0
ga4,12,L,TRUE,3855,2,1,0,1,0
ga4,13,L,TRUE,3561,2,1,0,1,1
ga4,14,L,TRUE,6972,2,1,0,1,0
ga4,15,L,TRUE,5759,1,1,0,1,1
ga4,16,L,FALSE,8046,1,0,0,0,1
ga4,17,L,FALSE,5438,2,1,0,0,1
ga4,18,L,TRUE,2950,2,1,1,1,1
ga4,19,L,TRUE,2487,2,0,0,1,1
ga4,20,L,TRUE,5303,2,1,1,1,0
ga4,21,L,TRUE,4735,1,1,1,1,1
ga4,22,L,TRUE,1637,1,1,0,1,1
ga4,23,L,FALSE,2859,2,1,0,0,1
ga4,24,L,FALSE,3607,2,1,1,0,1
ga4,25,L,TRUE,3232,1,1,1,1,1
ga4,26,L,FALSE,1790,1,0,1,0,0
ga4,27,L,TRUE,1548,1,1,1,1,1
ga4,28,L,TRUE,2428,2,0,1,1,1
ga4,29,L,FALSE,3766,1,1,0,0,1
ga4,30,L,TRUE,3174,2,1,0,1,1
ga4,31,L,TRUE,1937,2,1,1,1,1
ga4,32,L,TRUE,1419,2,1,1,1,1
ga4,33,L,TRUE,1943,1,1,1,1,1
ga4,34,L,TRUE,1954,1,1,0,1,1
ga4,35,L,TRUE,1910,1,1,0,1,0
ga4,36,L,TRUE,1719,1,1,0,1,1
ga4,37,L,FALSE,3301,1,0,1,0,0
ga4,38,L,TRUE,5829,2,1,0,1,1
ga4,39,L,TRUE,2361,1,1,0,1,1
ga4,40,L,TRUE,1336,1,0,1,1,1
ga4,41,L,TRUE,3519,2,0,0,1,0
ga4,42,L,TRUE,11371,1,0,1,1,1
ga4,43,L,FALSE,1275,1,0,0,0,0
ga4,44,L,TRUE,2275,1,0,1,1,1
ga4,45,L,TRUE,1118,2,1,1,1,1
ga4,46,L,TRUE,1079,1,1,1,1,1
ga4,47,L,TRUE,2007,2,1,0,1,0
ga4,48,L,TRUE,5249,1,1,1,1,0
ga4,49,L,TRUE,1863,1,1,0,1,1
ga4,50,L,TRUE,7213,1,0,0,1,1
ga4,51,L,TRUE,1375,1,1,1,1,1
ga4,52,L,TRUE,5604,2,0,0,1,1
ga4,53,L,TRUE,4238,1,0,0,1,0
ga4,54,L,FALSE,2936,1,1,1,0,1
ga4,55,L,TRUE,5143,2,1,0,1,0
ga4,56,L,TRUE,7102,1,1,0,1,1
ga4,57,L,TRUE,1667,1,0,1,1,1
ga4,58,L,TRUE,1140,1,1,0,1,1
ga4,59,L,TRUE,1193,2,1,0,1,0
ga4,60,L,TRUE,3220,2,0,1,0,1
ga4,61,L,FALSE,5088,1,0,0,1,0
ga4,62,L,TRUE,1887,1,0,0,1,1
ga4,63,L,TRUE,3560,2,1,1,1,1
ga4,64,L,TRUE,1722,1,1,1,1,1
ga4,65,L,TRUE,3098,1,0,0,1,0
ga4,66,L,TRUE,5036,1,1,1,1,0
ga4,67,L,TRUE,1741,2,1,1,1,0
ga4,68,L,TRUE,3937,2,1,1,1,1
ga4,69,L,TRUE,1134,1,1,1,1,1
ga4,70,L,TRUE,2375,2,1,0,1,1
ga4,71,L,FALSE,9996,2,0,1,1,0
ga4,72,L,TRUE,2784,2,0,1,0,1
ga4,73,L,TRUE,1428,2,1,1,1,1
ga4,74,L,TRUE,1476,2,1,0,1,1
ga4,75,L,FALSE,2125,1,1,0,0,1
ga4,76,L,TRUE,3799,2,0,1,1,1
ga4,77,L,TRUE,3332,1,0,0,1,0
ga4,78,L,FALSE,2091,2,0,1,0,0
ga4,79,L,TRUE,1883,1,0,1,1,1
ga4,80,L,FALSE,3822,1,0,1,0,0
ga4,81,L,TRUE,2981,2,1,1,1,1
ga4,82,L,TRUE,9447,2,1,1,1,0
ga4,83,L,TRUE,3422,2,0,0,1,0
ga4,84,L,TRUE,2133,1,0,1,1,1
ga4,85,L,TRUE,1150,1,1,1,1,1
ga4,86,L,TRUE,1790,2,0,1,0,1
ga4,87,L,TRUE,1342,1,1,0,1,0
ga4,88,L,FALSE,2383,1,0,0,0,1
ga4,89,L,TRUE,1669,2,1,0,1,1
ga4,90,L,TRUE,1457,2,1,0,1,1
brk,brk,brk,brk,brk,brk,brk,brk,brk,brk
ga4,91,L,FALSE,6240,2,0,0,0,0
ga4,92,L,TRUE,2074,2,0,0,1,1
ga4,93,L,FALSE,4703,1,1,1,1,0
ga4,94,L,TRUE,2082,1,1,0,1,0
ga4,95,L,TRUE,1216,2,1,1,1,1
ga4,96,L,TRUE,1468,2,0,1,1,1
ga4,97,L,FALSE,1135,1,0,1,0,0
ga4,98,L,FALSE,2808,1,0,1,1,0
ga4,99,L,TRUE,4184,1,0,0,1,1
ga4,100,L,TRUE,1183,1,0,1,1,1
ga4,101,L,TRUE,3450,1,1,0,1,1
ga4,102,L,FALSE,7364,2,0,1,1,0
ga4,103,L,TRUE,4671,1,0,1,0,1
ga4,104,L,FALSE,2287,2,0,1,0,0
ga4,105,L,FALSE,4166,2,0,0,0,1
ga4,106,L,TRUE,1073,1,0,1,1,1
ga4,107,L,TRUE,6576,1,0,1,0,1
ga4,108,L,FALSE,2957,2,1,0,0,1
ga4,109,L,FALSE,4119,1,0,0,0,0
ga4,110,L,FALSE,2919,2,1,1,1,0
ga4,111,L,FALSE,5622,1,1,1,0,1
ga4,112,L,TRUE,4257,2,1,0,1,1
ga4,113,L,TRUE,1407,1,0,0,1,1
ga4,114,L,FALSE,2275,2,0,1,0,0
ga4,115,L,TRUE,2202,2,1,0,1,1
ga4,116,L,TRUE,1047,2,1,1,1,1
ga4,117,L,TRUE,1917,1,0,0,1,1
ga4,118,L,TRUE,1607,2,0,1,1,1
ga4,119,L,TRUE,1133,1,0,0,1,1
ga4,120,L,TRUE,1025,2,1,1,1,1
ga4,121,L,TRUE,4388,2,0,1,0,1
ga4,122,L,TRUE,1899,1,1,0,1,1
ga4,123,L,TRUE,1449,1,1,1,1,1
ga4,124,L,TRUE,1479,1,1,1,1,0
ga4,125,L,FALSE,4838,1,1,1,0,1
ga4,126,L,TRUE,2260,1,1,0,1,1
ga4,127,L,TRUE,2768,1,0,1,0,1
ga4,128,L,TRUE,1631,1,0,1,1,1
ga4,129,L,TRUE,3769,1,1,0,1,0
ga4,130,L,FALSE,2790,1,1,0,0,1
ga4,131,L,TRUE,5127,2,1,1,1,1
ga4,132,L,FALSE,8481,1,0,0,0,1
ga4,133,L,TRUE,2454,1,1,0,1,1
ga4,134,L,TRUE,1839,1,1,1,1,1
ga4,135,L,TRUE,902,1,0,0,1,1
ga4,136,L,FALSE,863,2,0,1,0,0
ga4,137,L,FALSE,1813,2,1,0,0,1
ga4,138,L,TRUE,2089,2,1,0,1,0
ga4,139,L,TRUE,1191,1,1,0,1,1
ga4,140,L,TRUE,1918,2,1,1,1,1
ga4,141,L,TRUE,1222,2,1,1,1,1
ga4,142,L,TRUE,997,1,1,0,1,1
ga4,143,L,TRUE,1274,2,1,1,1,1
ga4,144,L,TRUE,775,1,0,0,1,1
ga4,145,L,TRUE,883,2,1,1,1,1
ga4,146,L,FALSE,739,2,0,1,0,0
ga4,147,L,TRUE,1422,2,1,0,1,1
ga4,148,L,FALSE,4164,2,0,0,0,1
ga4,149,L,FALSE,2511,1,1,0,0,1
ga4,150,L,TRUE,1128,1,0,0,1,1
ga4,151,L,FALSE,3200,1,1,0,0,1
ga4,152,L,FALSE,3329,2,0,1,1,0
ga4,153,L,TRUE,3002,2,1,0,1,0
ga4,154,L,TRUE,3058,2,1,1,1,1
ga4,155,L,TRUE,2160,1,0,1,0,1
ga4,156,L,FALSE,2218,2,0,0,0,0
ga4,157,L,FALSE,7047,2,0,0,0,1
ga4,158,L,TRUE,2394,2,0,1,1,1
ga4,159,L,FALSE,3757,2,0,0,0,1
ga4,160,L,TRUE,5785,1,1,0,1,1
ga4,161,L,TRUE,5520,1,1,1,1,0
ga4,162,L,FALSE,12212,2,0,1,1,0
ga4,163,L,TRUE,6292,2,0,1,0,1
ga4,164,L,TRUE,1746,1,1,1,0,1
ga4,165,L,TRUE,2594,2,0,1,1,1
ga4,166,L,FALSE,4705,1,1,0,0,1
ga4,167,L,FALSE,3919,2,0,0,0,1
ga4,168,L,TRUE,3670,2,1,0,1,1
ga4,169,L,FALSE,12464,1,0,0,1,0
ga4,170,L,TRUE,2444,1,0,0,1,1
ga4,171,L,FALSE,2234,2,1,1,0,1
ga4,172,L,TRUE,2233,1,0,1,0,1
ga4,173,L,TRUE,1970,2,1,1,1,1
ga4,174,L,FALSE,2801,2,0,0,0,1
ga4,175,L,TRUE,4110,1,0,1,0,1
ga4,176,L,FALSE,7284,2,0,0,0,1
ga4,177,L,TRUE,7539,1,1,1,1,0
ga4,178,L,FALSE,1829,1,1,0,0,0
ga4,179,L,TRUE,1752,1,0,0,1,1
ga4,180,L,TRUE,1834,1,0,0,1,1
brk,brk,brk,brk,brk,brk,brk,brk,brk,brk
ga4,181,L,TRUE,3120,2,0,0,1,1
ga4,182,L,TRUE,1228,2,0,0,1,1
ga4,183,L,FALSE,1380,2,0,1,0,0
ga4,184,L,TRUE,962,1,1,1,1,1
ga4,185,L,FALSE,1245,2,1,0,0,0
ga4,186,L,TRUE,1058,2,1,1,1,1
ga4,187,L,TRUE,1113,2,0,0,1,1
ga4,188,L,FALSE,3455,2,0,0,0,1
ga4,189,L,TRUE,1293,2,1,1,1,1
ga4,190,L,TRUE,3401,1,0,1,0,1
ga4,191,L,FALSE,2356,1,0,0,0,1
ga4,192,L,FALSE,8509,1,1,0,0,0
ga4,193,L,TRUE,1208,2,1,0,1,1
ga4,194,L,FALSE,1059,1,1,0,1,0
ga4,195,L,TRUE,2476,2,1,0,1,1
ga4,196,L,TRUE,2801,1,0,0,1,0
ga4,197,L,TRUE,1936,1,0,1,1,1
ga4,198,L,TRUE,9103,1,0,1,0,1
ga4,199,L,FALSE,5165,2,1,1,0,1
ga4,200,L,TRUE,3175,1,0,1,0,1
ga4,201,L,TRUE,2371,1,0,1,1,1
ga4,202,L,TRUE,2257,2,1,0,1,0
ga4,203,L,TRUE,2599,2,1,1,1,0
ga4,204,L,TRUE,1288,1,0,0,1,1
ga4,205,L,TRUE,2063,1,0,1,1,1
ga4,206,L,TRUE,1840,2,1,1,1,1
ga4,207,L,TRUE,3751,2,1,1,1,0
ga4,208,L,FALSE,1832,2,1,0,0,1
ga4,209,L,TRUE,2575,1,1,0,1,1
ga4,210,L,TRUE,1481,1,0,0,1,1
ga4,211,L,TRUE,1697,2,1,1,1,1
ga4,212,L,TRUE,3568,2,0,1,1,1
ga4,213,L,TRUE,7666,1,1,0,1,0
ga4,214,L,TRUE,1658,2,0,0,1,1
ga4,215,L,FALSE,1187,2,0,0,0,0
ga4,216,L,FALSE,1314,1,0,0,0,0
ga4,217,L,TRUE,1621,2,1,1,1,1
ga4,218,L,TRUE,3168,1,0,0,1,0
ga4,219,L,TRUE,2712,2,1,1,1,1
ga4,220,L,FALSE,7064,2,0,1,0,0
ga4,221,L,TRUE,3255,1,1,1,1,0
ga4,222,L,TRUE,1273,1,1,1,1,1
ga4,223,L,FALSE,1319,2,0,1,0,0
ga4,224,L,TRUE,1632,2,1,0,1,1
ga4,225,L,TRUE,3548,2,1,0,1,1
ga4,226,L,TRUE,1533,1,1,0,1,1
ga4,227,L,TRUE,2923,2,1,1,1,0
ga4,228,L,FALSE,3152,1,0,0,0,1
ga4,229,L,TRUE,2146,1,1,1,1,1
ga4,230,L,TRUE,2426,1,0,0,1,0
ga4,231,L,FALSE,2167,1,1,0,0,1
ga4,232,L,TRUE,8774,2,1,0,1,0
ga4,233,L,FALSE,6615,1,1,0,0,1
ga4,234,L,FALSE,2166,1,0,0,0,0
ga4,235,L,TRUE,2404,1,1,1,1,0
ga4,236,L,TRUE,4350,1,0,0,1,1
ga4,237,L,TRUE,3184,1,1,0,1,1
ga4,238,L,TRUE,1643,1,1,0,1,0
ga4,239,L,FALSE,1984,2,0,0,0,1
ga4,240,L,FALSE,1831,2,0,0,0,1
ga4,241,L,FALSE,1328,2,0,0,1,1
ga4,242,L,TRUE,1439,1,1,1,1,1
ga4,243,L,TRUE,2655,1,1,0,1,0
ga4,244,L,FALSE,5590,1,0,1,1,0
ga4,245,L,TRUE,1569,1,1,1,1,1
ga4,246,L,TRUE,891,1,1,1,1,1
ga4,247,L,TRUE,2355,2,0,0,1,0
ga4,248,L,TRUE,2671,2,1,1,1,1
ga4,249,L,TRUE,1198,2,1,0,1,1
ga4,250,L,TRUE,1016,1,0,1,1,1
ga4,251,L,TRUE,1976,2,1,0,1,0
ga4,252,L,TRUE,2716,1,1,1,1,0
ga4,253,L,TRUE,1428,1,1,0,1,1
ga4,254,L,FALSE,1432,1,0,0,0,0
ga4,255,L,TRUE,1509,2,1,0,1,0
ga4,256,L,FALSE,4478,1,0,0,0,1
ga4,257,L,TRUE,2719,1,1,0,1,1
ga4,258,L,FALSE,4960,1,0,0,0,1
ga4,259,L,TRUE,2908,1,1,0,1,1
ga4,260,L,TRUE,1413,1,1,0,1,0
ga4,261,L,FALSE,999,2,1,1,0,0
ga4,262,L,FALSE,1515,1,0,0,0,0
ga4,263,L,TRUE,5330,1,0,1,1,1
ga4,264,L,TRUE,4225,1,1,0,1,1
ga4,265,L,FALSE,3641,2,1,1,0,1
ga4,266,L,TRUE,8269,2,0,1,1,1
ga4,267,L,TRUE,2991,1,0,1,1,1
ga4,268,L,TRUE,2662,1,1,1,1,0
ga4,269,L,FALSE,2558,1,0,1,1,0
ga4,270,L,TRUE,1127,1,0,0,1,1
brk,brk,brk,brk,brk,brk,brk,brk,brk,brk
ga4,271,L,TRUE,2548,1,0,0,0,1
ga4,272,L,FALSE,1870,1,1,0,0,0
ga4,273,L,TRUE,799,2,1,1,1,1
ga4,274,L,TRUE,1482,1,0,0,1,0
ga4,275,L,FALSE,1783,1,0,1,0,0
ga4,276,L,TRUE,2118,2,1,0,1,1
ga4,277,L,FALSE,4524,1,0,1,1,0
ga4,278,L,FALSE,2313,1,1,0,0,1
ga4,279,L,TRUE,835,1,0,0,1,1
ga4,280,L,TRUE,2144,2,0,1,1,1
ga4,281,L,TRUE,1203,1,0,0,1,1
ga4,282,L,FALSE,2050,2,1,0,0,1
ga4,283,L,FALSE,3101,1,1,0,0,1
ga4,284,L,TRUE,1260,2,1,1,1,1
ga4,285,L,TRUE,5163,2,0,0,1,1
ga4,286,L,TRUE,742,2,0,0,1,1
ga4,287,L,FALSE,2800,2,0,1,0,0
ga4,288,L,TRUE,1299,2,1,1,0,1
ga4,289,L,FALSE,1324,1,1,1,1,0
ga4,290,L,TRUE,3256,1,0,1,0,1
ga4,291,L,TRUE,1580,1,1,1,1,1
ga4,292,L,TRUE,10463,1,0,0,1,0
ga4,293,L,TRUE,5665,1,1,1,1,1
ga4,294,L,TRUE,3516,1,0,1,0,1
ga4,295,L,TRUE,2521,2,1,0,1,0
ga4,296,L,TRUE,1535,2,0,0,1,1
ga4,297,L,TRUE,2644,1,0,1,0,1
ga4,298,L,FALSE,2509,2,1,0,0,1
ga4,299,L,TRUE,1590,2,1,1,1,1
ga4,300,L,FALSE,1200,2,1,1,0,0
ga4,301,L,FALSE,2335,1,0,0,0,1
ga4,302,L,TRUE,860,1,1,1,1,1
ga4,303,L,TRUE,1269,1,1,1,1,1
ga4,304,L,TRUE,1311,2,0,1,1,1
ga4,305,L,TRUE,1143,1,1,0,1,1
ga4,306,L,TRUE,2136,1,0,1,1,1
ga4,307,L,TRUE,2471,1,1,1,1,1
ga4,308,L,TRUE,1477,2,1,0,1,1
ga4,309,L,FALSE,1112,1,1,1,0,0
ga4,310,L,TRUE,3688,1,1,0,1,1
ga4,311,L,TRUE,1987,2,1,0,1,1
ga4,312,L,TRUE,7488,2,1,1,1,0
ga4,313,L,TRUE,2494,2,1,1,1,0
ga4,314,L,TRUE,2007,1,1,0,1,1
ga4,315,L,TRUE,1324,1,1,0,1,1
ga4,316,L,TRUE,967,1,1,1,1,1
ga4,317,L,FALSE,1062,1,0,1,1,0
ga4,318,L,FALSE,5671,1,0,1,1,0
ga4,319,L,FALSE,1422,1,0,1,0,0
ga4,320,L,TRUE,2263,2,0,0,1,0
ga4,321,L,TRUE,950,1,0,0,1,1
ga4,322,L,FALSE,1910,2,0,0,1,0
ga4,323,L,TRUE,2469,2,1,0,1,1
ga4,324,L,TRUE,1127,1,1,1,1,1
ga4,325,L,TRUE,2540,2,0,1,1,1
ga4,326,L,TRUE,3143,2,1,1,1,0
ga4,327,L,FALSE,1647,2,1,0,0,0
ga4,328,L,TRUE,1793,2,1,0,1,1
ga4,329,L,FALSE,949,2,1,1,0,0
ga4,330,L,FALSE,2767,1,1,0,0,0
ga4,331,L,FALSE,8097,2,0,0,0,1
ga4,332,L,TRUE,1918,2,0,1,0,1
ga4,333,L,TRUE,1809,2,1,0,1,1
ga4,334,L,FALSE,957,1,1,1,1,0
ga4,335,L,TRUE,1582,1,0,0,1,0
ga4,336,L,TRUE,910,1,1,0,1,1
ga4,337,L,TRUE,2006,2,1,0,1,1
ga4,338,L,TRUE,3997,2,0,1,0,1
ga4,339,L,TRUE,5738,1,0,1,1,1
ga4,340,L,TRUE,2062,2,0,1,1,1
ga4,341,L,FALSE,939,2,0,1,1,0
ga4,342,L,TRUE,1090,1,0,0,1,1
ga4,343,L,TRUE,2414,2,0,1,1,1
ga4,344,L,FALSE,1118,1,1,1,0,0
ga4,345,L,TRUE,2397,2,0,1,1,1
ga4,346,L,TRUE,712,1,0,0,1,1
ga4,347,L,TRUE,653,1,0,0,1,1
ga4,348,L,TRUE,1053,1,1,0,1,1
ga4,349,L,TRUE,852,1,0,1,1,1
ga4,350,L,TRUE,3450,2,1,0,1,1
ga4,351,L,FALSE,2251,2,0,0,0,1
ga4,352,L,FALSE,3051,1,1,1,0,1
ga4,353,L,FALSE,1732,1,0,0,0,1
ga4,354,L,TRUE,1334,1,1,1,1,1
ga4,355,L,TRUE,1031,2,1,1,1,1
ga4,356,L,TRUE,1926,1,1,0,1,0
ga4,357,L,TRUE,2165,1,0,0,1,0
ga4,358,L,FALSE,2126,1,0,1,1,0
ga4,359,L,FALSE,1250,2,0,0,0,1
ga4,360,L,TRUE,8281,2,1,1,1,0
brk,brk,brk,brk,brk,brk,brk,brk,brk,brk
ga4,361,L,FALSE,2624,1,1,0,0,0
ga4,362,L,FALSE,954,2,0,1,0,0
ga4,363,L,TRUE,1303,2,1,0,1,1
ga4,364,L,FALSE,1084,1,1,1,1,0
ga4,365,L,FALSE,2691,2,1,0,0,1
ga4,366,L,FALSE,4684,2,0,1,0,0
ga4,367,L,TRUE,5937,1,0,1,1,1
ga4,368,L,TRUE,3373,2,1,1,1,0
ga4,369,L,TRUE,945,1,1,0,1,1
ga4,370,L,TRUE,1459,2,1,0,1,0
ga4,371,L,TRUE,1123,2,1,1,1,1
ga4,372,L,TRUE,1936,2,0,0,1,1
ga4,373,L,TRUE,6647,1,0,1,1,1
ga4,374,L,TRUE,660,1,0,0,1,1
ga4,375,L,TRUE,1648,2,1,1,1,1
ga4,376,L,TRUE,686,1,0,0,1,1
ga4,377,L,TRUE,2118,1,0,0,1,0
ga4,378,L,TRUE,5329,1,0,1,1,1
ga4,379,L,FALSE,1049,2,1,1,0,0
ga4,380,L,TRUE,2378,1,0,1,0,1
ga4,381,L,TRUE,1096,1,1,1,1,1
ga4,382,L,TRUE,1837,2,1,0,1,0
ga4,383,L,FALSE,11375,1,1,0,0,0
ga4,384,L,TRUE,4245,2,1,1,1,0
ga4,385,L,FALSE,5967,1,1,1,0,1
ga4,386,L,TRUE,4843,2,1,0,1,0
ga4,387,L,TRUE,7091,2,1,1,1,1
ga4,388,L,TRUE,1667,1,1,0,1,1
ga4,389,L,TRUE,1566,1,1,1,1,0
ga4,390,L,TRUE,1634,2,0,0,1,1
ga4,391,L,FALSE,5056,2,0,0,0,1
ga4,392,L,FALSE,3820,1,0,1,1,0
ga4,393,L,TRUE,5338,2,1,0,1,1
ga4,394,L,FALSE,17335,2,0,0,0,1
ga4,395,L,TRUE,1759,1,0,0,1,1
ga4,396,L,FALSE,2199,2,0,1,0,0
ga4,397,L,TRUE,1076,2,1,1,1,1
ga4,398,L,TRUE,4054,2,1,0,1,0
ga4,399,L,FALSE,823,2,0,0,0,0
ga4,400,L,FALSE,2641,1,1,0,0,0
ga4,401,L,FALSE,916,2,1,0,0,0
ga4,402,L,FALSE,849,2,0,0,0,0
ga4,403,L,TRUE,1099,1,1,1,1,1
ga4,404,L,FALSE,838,2,1,1,0,1
ga4,405,L,TRUE,1075,2,1,0,1,1
ga4,406,L,TRUE,1666,2,1,0,1,0
ga4,407,L,FALSE,4870,1,0,0,0,1
ga4,408,L,TRUE,2195,1,0,1,1,1
ga4,409,L,TRUE,836,1,0,0,1,1
ga4,410,L,TRUE,847,1,1,1,1,1
ga4,411,L,FALSE,1724,1,0,1,0,0
ga4,412,L,TRUE,2646,2,1,0,1,1
ga4,413,L,TRUE,950,2,1,1,1,1
ga4,414,L,TRUE,719,1,0,0,1,1
ga4,415,L,TRUE,1544,2,1,0,1,1
ga4,416,L,TRUE,702,1,1,0,1,1
ga4,417,L,TRUE,1254,1,1,0,1,1
ga4,418,L,TRUE,909,2,1,1,1,1
ga4,419,L,TRUE,1682,1,0,1,0,1
ga4,420,L,TRUE,1116,2,1,0,1,1
ga4,421,L,TRUE,989,1,1,0,1,1
ga4,422,L,FALSE,1359,2,0,1,0,0
ga4,423,L,TRUE,916,2,0,1,1,1
ga4,424,L,FALSE,2478,1,0,0,0,1
ga4,425,L,FALSE,2309,1,0,0,0,0
ga4,426,L,FALSE,8178,2,0,0,0,1
ga4,427,L,TRUE,13593,2,0,1,1,0
ga4,428,L,TRUE,3595,2,1,0,1,1
ga4,429,L,TRUE,1390,1,0,1,1,1
ga4,430,L,TRUE,3983,2,0,0,0,1
ga4,431,L,TRUE,8603,1,0,1,0,1
ga4,432,L,FALSE,10308,2,0,1,0,0
ga4,433,L,TRUE,2020,1,0,1,0,1
ga4,434,L,TRUE,1265,2,1,0,1,1
ga4,435,L,TRUE,3276,1,0,0,1,0
ga4,436,L,TRUE,682,1,0,0,1,1
ga4,437,L,FALSE,800,2,1,1,0,0
ga4,438,L,FALSE,1852,1,1,0,0,0
ga4,439,L,TRUE,1403,2,1,0,1,1
ga4,440,L,TRUE,5392,1,1,0,1,1
ga4,441,L,TRUE,1899,1,1,1,1,0
ga4,442,L,FALSE,9527,1,0,1,1,0
ga4,443,L,TRUE,4519,2,1,0,1,1
ga4,444,L,TRUE,790,2,1,1,1,1
ga4,445,L,TRUE,2556,2,1,0,1,0
ga4,446,L,FALSE,1308,1,1,0,0,1
ga4,447,L,TRUE,1649,1,0,0,1,1
ga4,448,L,TRUE,1170,1,1,0,1,1
ga4,449,L,FALSE,2871,1,0,0,0,1
ga4,450,L,TRUE,1461,2,1,1,1,1
subID,trialNum,cntBalance,correct,rt,winner,p1conf,p2conf,p1rslt,p2rslt
btm,1,L,FALSE,5749,2,0,0,0,0
btm,2,L,FALSE,3041,1,0,1,0,1
btm,3,L,TRUE,1825,2,0,1,1,1
btm,4,L,TRUE,2084,2,1,1,1,1
btm,5,L,FALSE,2442,1,0,0,1,0
btm,6,L,TRUE,1653,2,0,1,1,0
btm,7,L,TRUE,1791,1,0,1,1,1
btm,8,L,TRUE,1095,1,1,0,1,1
btm,9,L,FALSE,1525,1,0,1,0,1
btm,10,L,TRUE,3309,2,0,1,0,1
btm,11,L,TRUE,3060,1,1,1,1,1
btm,12,L,TRUE,3752,1,0,0,1,1
btm,13,L,TRUE,1422,2,1,0,1,1
btm,14,L,TRUE,1929,1,0,0,1,0
btm,15,L,TRUE,1860,1,0,0,1,1
btm,16,L,TRUE,1473,1,0,0,1,0
btm,17,L,TRUE,1546,2,0,1,0,0
btm,18,L,TRUE,4012,2,1,0,1,0
btm,19,L,FALSE,3127,1,0,0,0,1
btm,20,L,FALSE,3374,2,1,1,1,0
btm,21,L,TRUE,1147,1,1,1,1,1
btm,22,L,FALSE,2453,2,0,1,1,0
btm,23,L,FALSE,2046,2,0,1,0,0
btm,24,L,FALSE,2196,2,1,1,0,1
btm,25,L,TRUE,1575,2,1,1,1,1
btm,26,L,FALSE,955,1,0,1,1,0
btm,27,L,TRUE,1087,1,1,0,0,1
btm,28,L,TRUE,2989,1,1,0,1,1
btm,29,L,FALSE,2741,2,0,0,0,1
btm,30,L,TRUE,2029,1,1,0,1,1
btm,31,L,FALSE,958,1,0,1,0,1
btm,32,L,TRUE,1890,1,1,1,1,1
btm,33,L,TRUE,1209,2,1,1,1,1
btm,34,L,TRUE,1275,2,1,0,1,1
btm,35,L,TRUE,1804,1,1,1,1,1
btm,36,L,TRUE,2698,1,1,0,1,1
btm,37,L,FALSE,1787,1,0,0,0,0
btm,38,L,TRUE,1432,1,0,1,0,1
btm,39,L,TRUE,3128,1,0,0,0,1
btm,40,L,TRUE,1712,2,1,1,1,0
btm,41,L,TRUE,1334,2,1,0,1,1
btm,42,L,TRUE,1015,2,1,0,1,1
btm,43,L,TRUE,1376,1,0,1,1,1
btm,44,L,TRUE,879,1,0,1,1,1
btm,45,L,TRUE,1073,2,0,1,0,1
btm,46,L,FALSE,2119,2,0,1,1,0
btm,47,L,TRUE,1491,2,0,1,0,1
btm,48,L,TRUE,832,2,0,1,0,1
btm,49,L,FALSE,915,1,0,1,1,1
btm,50,L,TRUE,2677,1,1,0,1,1
btm,51,L,TRUE,1528,2,1,1,1,0
btm,52,L,TRUE,1384,1,0,0,1,0
btm,53,L,TRUE,1311,1,0,0,1,1
btm,54,L,FALSE,1448,1,0,0,0,1
btm,55,L,TRUE,1096,1,1,0,1,0
btm,56,L,TRUE,1365,1,1,1,1,1
btm,57,L,TRUE,1384,2,1,0,1,1
btm,58,L,FALSE,833,2,1,0,0,0
btm,59,L,FALSE,695,1,0,1,1,1
btm,60,L,TRUE,1108,1,0,1,1,1
btm,61,L,FALSE,2284,1,0,1,0,1
btm,62,L,FALSE,2455,2,0,1,1,0
btm,63,L,TRUE,796,2,1,1,1,0
btm,64,L,TRUE,1372,1,1,0,1,0
btm,65,L,TRUE,992,2,1,1,1,1
btm,66,L,TRUE,1311,1,1,0,1,1
btm,67,L,TRUE,1632,1,0,0,1,0
btm,68,L,TRUE,1271,2,1,1,1,1
btm,69,L,TRUE,2135,2,0,0,1,0
btm,70,L,FALSE,871,1,1,1,1,0
btm,71,L,TRUE,1095,1,1,1,1,1
btm,72,L,FALSE,1270,2,0,0,1,0
btm,73,L,TRUE,1064,1,0,0,1,1
btm,74,L,TRUE,1046,2,1,1,1,0
btm,75,L,TRUE,1069,2,0,1,1,1
btm,76,L,FALSE,2486,2,0,0,0,0
btm,77,L,TRUE,873,2,1,0,1,1
btm,78,L,FALSE,1017,1,1,0,0,1
btm,79,L,TRUE,1406,2,0,0,1,0
btm,80,L,FALSE,1367,1,0,1,1,0
btm,81,L,TRUE,710,2,0,1,1,1
btm,82,L,FALSE,780,1,1,1,0,0
btm,83,L,TRUE,1074,2,0,1,0,1
btm,84,L,FALSE,1184,1,1,0,0,1
btm,85,L,FALSE,623,1,0,1,1,1
btm,86,L,FALSE,684,2,1,1,1,0
btm,87,L,TRUE,830,2,1,1,1,1
btm,88,L,TRUE,782,2,0,1,0,1
btm,89,L,TRUE,822,1,1,0,1,1
btm,90,L,FALSE,1040,1,1,1,1,0
btm,91,L,TRUE,1183,1,0,0,1,1
btm,92,L,TRUE,1137,2,1,0,1,0
btm,93,L,TRUE,713,2,1,1,1,0
btm,94,L,TRUE,718,2,1,1,1,1
btm,95,L,TRUE,792,1,1,1,1,1
btm,96,L,TRUE,815,1,1,0,1,1
btm,97,L,TRUE,1464,1,0,1,1,1
btm,98,L,FALSE,1438,2,0,0,1,0
btm,99,L,FALSE,1456,1,0,0,0,0
btm,100,L,FALSE,1460,2,0,0,0,1
brk,brk,brk,brk,brk,brk,brk,brk,brk,brk
btm,101,L,TRUE,1569,2,1,1,1,1
btm,102,L,FALSE,892,2,0,0,0,0
btm,103,L,TRUE,762,2,0,1,1,1
btm,104,L,FALSE,968,2,0,0,0,0
btm,105,L,TRUE,639,2,1,1,1,1
btm,106,L,TRUE,710,2,0,1,1,1
btm,107,L,TRUE,1118,1,1,0,1,1
btm,108,L,TRUE,788,1,1,0,1,1
btm,109,L,TRUE,879,1,0,0,1,1
btm,110,L,FALSE,2375,1,0,0,0,1
btm,111,L,TRUE,925,1,0,0,1,1
btm,112,L,TRUE,992,2,1,0,1,1
btm,113,L,FALSE,1616,2,0,1,1,0
btm,114,L,TRUE,942,2,1,1,0,1
btm,115,L,TRUE,1174,1,1,0,1,1
btm,116,L,TRUE,2072,1,0,0,0,1
btm,117,L,TRUE,2080,1,1,0,1,1
btm,118,L,TRUE,1225,2,0,0,1,1
btm,119,L,TRUE,1426,2,1,0,1,1
btm,120,L,TRUE,1312,2,1,0,1,1
btm,121,L,TRUE,1072,2,1,0,1,1
btm,122,L,FALSE,1487,1,0,0,0,0
btm,123,L,TRUE,1496,1,1,1,1,1
btm,124,L,TRUE,1112,1,0,1,1,1
btm,125,L,TRUE,2622,1,1,1,0,1
btm,126,L,TRUE,1390,2,0,1,1,1
btm,127,L,TRUE,2232,1,1,0,1,0
btm,128,L,TRUE,1871,2,1,1,1,0
btm,129,L,TRUE,1555,2,0,1,1,1
btm,130,L,TRUE,1160,2,1,1,1,1
btm,131,L,FALSE,1286,1,1,1,1,0
btm,132,L,TRUE,1085,1,0,0,1,0
btm,133,L,FALSE,1082,1,1,1,1,0
btm,134,L,FALSE,716,2,1,1,1,1
btm,135,L,TRUE,849,2,1,0,1,1
btm,136,L,FALSE,635,1,1,1,0,1
btm,137,L,TRUE,897,1,0,1,0,1
btm,138,L,FALSE,782,1,0,1,1,0
btm,139,L,TRUE,725,2,1,1,1,1
btm,140,L,TRUE,584,2,1,1,1,1
btm,141,L,TRUE,807,2,0,1,1,1
btm,142,L,FALSE,848,2,0,0,0,0
btm,143,L,TRUE,1717,2,0,1,0,1
btm,144,L,TRUE,1710,2,1,0,1,1
btm,145,L,TRUE,1120,2,0,1,1,0
btm,146,L,FALSE,1376,1,0,0,1,1
btm,147,L,TRUE,1498,1,0,1,0,1
btm,148,L,TRUE,965,2,0,1,0,1
btm,149,L,TRUE,1032,1,0,0,1,0
btm,150,L,TRUE,817,2,0,1,1,1
btm,151,L,TRUE,585,1,0,0,1,1
btm,152,L,TRUE,977,1,1,0,1,1
btm,153,L,TRUE,691,1,1,0,1,1
btm,154,L,TRUE,1177,2,0,1,1,1
btm,155,L,TRUE,1589,2,0,0,1,0
btm,156,L,TRUE,886,1,1,0,1,0
btm,157,L,FALSE,939,1,0,1,0,0
btm,158,L,TRUE,939,1,1,0,1,0
btm,159,L,TRUE,566,1,0,0,1,1
btm,160,L,TRUE,712,2,1,0,1,1
btm,161,L,FALSE,574,1,1,1,1,1
btm,162,L,TRUE,863,2,0,0,1,1
btm,163,L,FALSE,616,1,1,1,1,1
btm,164,L,TRUE,931,1,1,1,1,0
btm,165,L,FALSE,891,1,1,0,1,0
btm,166,L,TRUE,735,1,1,1,1,1
btm,167,L,TRUE,914,2,0,0,1,1
btm,168,L,FALSE,968,2,1,1,0,1
btm,169,L,TRUE,689,2,1,1,1,1
btm,170,L,TRUE,831,2,0,1,0,1
btm,171,L,TRUE,1110,2,1,1,1,0
btm,172,L,FALSE,883,2,0,1,1,1
btm,173,L,TRUE,893,1,0,1,0,1
btm,174,L,TRUE,875,1,1,0,1,1
btm,175,L,TRUE,940,2,0,1,1,1
btm,176,L,FALSE,791,1,1,1,0,0
btm,177,L,FALSE,933,1,1,1,1,0
btm,178,L,FALSE,575,2,1,0,0,1
btm,179,L,TRUE,2904,2,0,0,1,1
btm,180,L,TRUE,681,1,1,1,1,1
btm,181,L,TRUE,918,2,0,0,0,1
btm,182,L,TRUE,1280,1,0,0,1,0
btm,183,L,TRUE,1238,1,0,1,0,1
btm,184,L,TRUE,1248,1,1,0,1,0
btm,185,L,TRUE,829,1,1,1,1,1
btm,186,L,FALSE,830,2,0,0,1,1
btm,187,L,TRUE,1064,2,1,1,1,0
btm,188,L,TRUE,1205,2,1,0,1,1
btm,189,L,TRUE,1337,1,1,1,1,1
btm,190,L,FALSE,1070,1,0,1,0,1
btm,191,L,FALSE,992,1,1,1,1,1
btm,192,L,TRUE,785,2,1,1,1,1
btm,193,L,FALSE,1136,1,0,1,1,0
btm,194,L,TRUE,638,1,0,0,1,1
btm,195,L,TRUE,1000,2,0,0,1,0
btm,196,L,TRUE,625,1,0,0,1,1
btm,197,L,FALSE,616,2,0,1,0,1
btm,198,L,FALSE,829,1,1,0,0,1
btm,199,L,FALSE,836,2,1,0,0,1
btm,200,L,FALSE,1835,2,0,0,1,0
brk,brk,brk,brk,brk,brk,brk,brk,brk,brk
btm,201,L,TRUE,2987,2,0,1,0,1
btm,202,L,TRUE,558,1,1,1,1,1
btm,203,L,TRUE,848,1,0,1,0,1
btm,204,L,TRUE,728,1,0,0,1,1
btm,205,L,TRUE,761,2,0,1,1,0
btm,206,L,FALSE,368,2,1,0,1,1
btm,207,L,FALSE,385,1,0,1,0,0
btm,208,L,FALSE,297,2,0,0,1,1
btm,209,L,FALSE,683,1,1,0,1,0
btm,210,L,FALSE,813,2,0,0,0,0
btm,211,L,TRUE,1440,2,1,0,0,1
btm,212,L,TRUE,1623,2,1,1,1,0
btm,213,L,TRUE,702,1,1,1,1,1
btm,214,L,TRUE,1025,1,0,0,1,1
btm,215,L,TRUE,542,1,1,0,1,0
btm,216,L,FALSE,282,2,0,1,1,0
btm,217,L,FALSE,624,1,1,1,1,1
btm,218,L,FALSE,334,2,0,0,0,1
btm,219,L,FALSE,1053,1,1,0,0,0
btm,220,L,FALSE,1332,2,1,0,0,1
btm,221,L,TRUE,876,1,1,1,1,1
btm,222,L,TRUE,816,1,1,0,1,1
btm,223,L,TRUE,2133,1,1,1,1,1
btm,224,L,TRUE,441,1,1,0,1,1
btm,225,L,FALSE,636,2,0,0,1,0
btm,226,L,TRUE,473,1,1,0,1,1
btm,227,L,FALSE,489,2,0,0,0,1
btm,228,L,FALSE,731,1,0,0,1,0
btm,229,L,FALSE,662,2,1,0,1,1
btm,230,L,FALSE,1061,1,0,1,1,1
btm,231,L,TRUE,520,1,1,0,1,1
btm,232,L,FALSE,340,2,1,0,1,1
btm,233,L,TRUE,762,2,0,0,1,1
btm,234,L,TRUE,1101,2,0,0,0,1
btm,235,L,TRUE,711,1,1,1,1,1
btm,236,L,FALSE,778,1,0,1,1,0
btm,237,L,TRUE,848,1,0,1,1,1
btm,238,L,FALSE,1502,2,1,1,0,1
btm,239,L,FALSE,1098,1,0,0,0,1
btm,240,L,FALSE,742,1,0,1,1,0
btm,241,L,TRUE,1008,2,0,0,1,1
btm,242,L,TRUE,685,1,0,0,1,1
btm,243,L,FALSE,632,1,1,0,0,1
btm,244,L,TRUE,745,1,1,0,1,1
btm,245,L,TRUE,740,2,1,1,1,1
btm,246,L,TRUE,728,2,0,0,1,1
btm,247,L,TRUE,582,1,1,0,1,1
btm,248,L,TRUE,750,2,1,0,1,1
btm,249,L,TRUE,784,1,1,0,1,0
btm,250,L,TRUE,943,1,0,0,1,1
btm,251,L,TRUE,751,1,1,0,1,0
btm,252,L,TRUE,860,2,1,0,1,1
btm,253,L,FALSE,616,1,1,0,0,0
btm,254,L,TRUE,966,1,1,1,1,1
btm,255,L,FALSE,1133,2,1,1,0,1
btm,256,L,TRUE,569,2,0,1,1,0
btm,257,L,TRUE,777,2,1,1,1,0
btm,258,L,TRUE,698,1,1,0,1,1
btm,259,L,TRUE,620,1,1,0,1,0
btm,260,L,TRUE,576,1,1,1,1,1
btm,261,L,TRUE,1565,1,1,0,1,1
btm,262,L,TRUE,701,1,0,1,1,1
btm,263,L,TRUE,1590,1,1,1,1,1
btm,264,L,TRUE,829,1,0,0,1,1
btm,265,L,TRUE,917,2,0,1,1,1
btm,266,L,TRUE,1654,2,1,1,1,0
btm,267,L,FALSE,1993,1,1,1,0,0
btm,268,L,TRUE,751,2,0,0,1,1
btm,269,L,TRUE,1247,2,0,1,1,1
btm,270,L,TRUE,670,2,0,0,1,1
btm,271,L,FALSE,712,1,0,1,1,1
btm,272,L,FALSE,2645,1,1,0,0,1
btm,273,L,TRUE,508,1,1,1,1,1
btm,274,L,TRUE,571,1,0,0,0,1
btm,275,L,TRUE,807,2,0,1,0,1
btm,276,L,TRUE,1580,2,1,1,1,0
btm,277,L,FALSE,581,2,0,0,0,1
btm,278,L,TRUE,897,2,0,0,1,1
btm,279,L,FALSE,647,1,1,1,1,0
btm,280,L,FALSE,862,2,1,1,1,0
btm,281,L,FALSE,559,1,0,0,0,1
btm,282,L,TRUE,1211,2,0,1,0,1
btm,283,L,TRUE,743,1,1,1,1,1
btm,284,L,TRUE,1214,1,1,1,1,0
btm,285,L,TRUE,56,1,0,0,0,0
btm,286,L,FALSE,2407,2,0,1,1,1
btm,287,L,TRUE,1189,1,1,1,1,1
btm,288,L,TRUE,1361,2,1,0,1,1
btm,289,L,TRUE,555,2,1,1,1,0
btm,290,L,FALSE,499,1,1,0,0,1
btm,291,L,FALSE,534,1,0,1,1,0
btm,292,L,TRUE,336,2,0,0,0,0
btm,293,L,FALSE,654,2,0,1,1,1
btm,294,L,FALSE,726,1,1,1,1,0
btm,295,L,TRUE,798,2,0,0,1,1
btm,296,L,FALSE,567,2,1,0,1,0
btm,297,L,TRUE,638,2,1,1,1,1
btm,298,L,FALSE,586,2,0,0,0,1
btm,299,L,FALSE,761,1,0,1,1,0
btm,300,L,FALSE,646,1,1,1,1,1
brk,brk,brk,brk,brk,brk,brk,brk,brk,brk
btm,301,L,TRUE,455,1,1,0,1,1
btm,302,L,TRUE,585,2,0,1,0,1
btm,303,L,TRUE,455,1,1,1,1,1
btm,304,L,TRUE,400,1,0,0,1,1
btm,305,L,FALSE,525,1,1,1,1,1
btm,306,L,TRUE,306,1,0,1,0,1
btm,307,L,TRUE,925,2,1,0,1,1
btm,308,L,FALSE,927,2,1,0,0,1
btm,309,L,FALSE,301,1,0,1,0,1
btm,310,L,TRUE,669,2,0,1,0,0
btm,311,L,FALSE,1936,2,1,1,1,1
btm,312,L,TRUE,1330,1,1,0,1,0
btm,313,L,FALSE,828,2,0,0,0,1
btm,314,L,TRUE,644,2,0,0,1,1
btm,315,L,TRUE,800,1,0,0,0,1
btm,316,L,FALSE,416,1,1,0,0,1
btm,317,L,FALSE,415,2,1,0,1,1
btm,318,L,TRUE,598,1,1,1,1,1
btm,319,L,TRUE,892,2,0,1,1,0
btm,320,L,TRUE,872,2,0,0,1,1
btm,321,L,FALSE,424,1,0,1,1,1
btm,322,L,FALSE,240,2,0,1,0,0
btm,323,L,TRUE,545,2,0,1,1,0
btm,324,L,TRUE,847,2,1,1,1,1
btm,325,L,TRUE,598,1,0,0,1,1
btm,326,L,TRUE,536,1,0,0,1,1
btm,327,L,FALSE,1063,2,0,0,0,0
btm,328,L,TRUE,1449,1,0,0,1,0
btm,329,L,TRUE,9163,2,0,1,0,1
btm,330,L,TRUE,862,2,0,0,1,0
btm,331,L,FALSE,983,2,1,0,0,1
btm,332,L,TRUE,1270,1,1,1,1,0
btm,333,L,TRUE,766,2,1,1,1,1
btm,334,L,TRUE,552,2,0,1,1,1
btm,335,L,TRUE,1093,2,0,1,0,0
btm,336,L,TRUE,790,2,0,1,1,0
btm,337,L,TRUE,2728,1,1,0,1,1
btm,338,L,TRUE,582,2,0,1,1,0
btm,339,L,FALSE,1032,1,0,1,0,1
btm,340,L,TRUE,664,2,1,0,1,0
btm,341,L,TRUE,1267,1,1,0,1,1
btm,342,L,FALSE,574,1,1,1,0,1
btm,343,L,TRUE,690,2,1,1,0,1
btm,344,L,TRUE,549,2,1,1,0,0
btm,345,L,TRUE,1651,1,0,1,1,1
btm,346,L,FALSE,554,2,0,0,0,0
btm,347,L,FALSE,688,1,0,1,1,0
btm,348,L,TRUE,580,1,0,0,1,1
btm,349,L,TRUE,566,1,1,0,1,1
btm,350,L,TRUE,965,1,1,0,1,0
btm,351,L,TRUE,1165,2,0,1,1,0
btm,352,L,TRUE,638,2,1,1,1,0
btm,353,L,TRUE,829,2,0,1,0,0
btm,354,L,FALSE,663,2,1,0,0,0
btm,355,L,FALSE,814,2,0,1,1,0
btm,356,L,FALSE,725,2,0,1,1,1
btm,357,L,FALSE,566,1,1,1,1,1
btm,358,L,TRUE,737,2,1,0,1,1
btm,359,L,TRUE,891,2,1,1,1,1
btm,360,L,TRUE,910,2,0,1,1,1
btm,361,L,FALSE,590,1,0,1,0,1
btm,362,L,TRUE,653,2,0,1,1,0
btm,363,L,TRUE,625,1,1,1,1,0
btm,364,L,TRUE,690,2,1,0,1,1
btm,365,L,TRUE,548,2,0,0,1,1
btm,366,L,FALSE,685,2,0,0,0,1
btm,367,L,FALSE,660,1,1,0,1,1
btm,368,L,FALSE,968,1,1,0,0,1
btm,369,L,TRUE,615,2,1,0,1,1
btm,370,L,TRUE,576,1,0,1,1,0
btm,371,L,TRUE,571,2,1,1,1,1
btm,372,L,FALSE,414,1,1,1,0,1
btm,373,L,FALSE,1640,1,0,1,0,1
btm,374,L,FALSE,641,1,1,1,1,0
btm,375,L,TRUE,1300,1,0,0,0,1
btm,376,L,TRUE,689,1,1,1,1,1
btm,377,L,FALSE,703,2,0,0,0,1
btm,378,L,TRUE,1117,2,1,0,1,0
btm,379,L,TRUE,1306,2,1,1,1,1
btm,380,L,FALSE,681,2,1,0,0,1
btm,381,L,FALSE,606,1,1,1,0,1
btm,382,L,TRUE,624,1,0,1,1,1
btm,383,L,FALSE,492,2,0,1,1,1
btm,384,L,TRUE,598,2,0,0,1,1
btm,385,L,TRUE,543,2,0,1,1,1
btm,386,L,FALSE,614,2,0,1,0,0
btm,387,L,TRUE,704,2,1,0,1,1
btm,388,L,TRUE,495,1,0,0,1,0
btm,389,L,TRUE,481,1,0,0,1,1
btm,390,L,FALSE,434,2,0,0,0,1
btm,391,L,TRUE,589,2,0,0,1,1
btm,392,L,TRUE,501,2,0,0,1,1
btm,393,L,TRUE,605,2,0,1,1,1
btm,394,L,TRUE,476,2,0,1,1,1
btm,395,L,TRUE,416,2,1,1,1,0
btm,396,L,TRUE,543,2,1,0,0,1
btm,397,L,TRUE,892,2,0,0,1,1
btm,398,L,TRUE,558,2,0,0,1,1
btm,399,L,FALSE,518,2,0,1,0,1
btm,400,L,FALSE,583,1,1,0,0,0
brk,brk,brk,brk,brk,brk,brk,brk,brk,brk
btm,401,L,TRUE,867,1,1,0,1,1
btm,402,L,TRUE,566,1,1,1,1,1
btm,403,L,FALSE,746,1,0,1,1,0
btm,404,L,TRUE,556,1,0,1,1,1
btm,405,L,FALSE,517,1,1,1,0,1
btm,406,L,TRUE,742,2,1,0,1,1
btm,407,L,FALSE,534,1,1,1,0,1
btm,408,L,TRUE,494,1,1,0,1,1
btm,409,L,TRUE,886,2,0,0,1,1
btm,410,L,TRUE,630,1,0,0,1,0
btm,411,L,FALSE,1087,1,1,1,0,1
btm,412,L,TRUE,1028,1,0,1,1,0
btm,413,L,FALSE,535,1,1,0,0,1
btm,414,L,FALSE,502,2,1,0,1,1
btm,415,L,FALSE,423,1,1,0,0,1
btm,416,L,FALSE,866,2,0,0,0,1
btm,417,L,TRUE,547,2,1,0,1,1
btm,418,L,TRUE,632,2,0,0,0,1
btm,419,L,TRUE,1003,2,0,1,0,1
btm,420,L,TRUE,597,1,1,0,1,1
btm,421,L,FALSE,753,1,1,1,1,0
btm,422,L,FALSE,479,2,1,0,1,1
btm,423,L,TRUE,1143,1,1,0,1,1
btm,424,L,FALSE,648,2,0,0,0,0
btm,425,L,FALSE,1278,1,0,0,0,1
btm,426,L,TRUE,623,2,1,0,1,0
btm,427,L,TRUE,742,2,1,1,1,1
btm,428,L,TRUE,1199,2,0,0,1,1
btm,429,L,FALSE,592,1,1,0,1,0
btm,430,L,FALSE,606,2,0,1,0,0
btm,431,L,FALSE,373,1,1,1,1,0
btm,432,L,TRUE,567,1,0,0,1,0
btm,433,L,TRUE,880,2,1,0,0,1
btm,434,L,FALSE,1061,1,1,1,1,1
btm,435,L,TRUE,1102,1,0,0,1,0
btm,436,L,TRUE,715,2,1,1,1,0
btm,437,L,TRUE,782,2,1,1,1,1
btm,438,L,TRUE,486,1,0,0,1,1
btm,439,L,TRUE,1480,2,0,1,1,1
btm,440,L,TRUE,653,1,1,0,1,1
btm,441,L,TRUE,503,1,1,1,1,0
btm,442,L,FALSE,456,2,0,0,0,0
btm,443,L,FALSE,340,1,0,1,0,1
btm,444,L,FALSE,100,2,1,0,1,1
btm,445,L,FALSE,428,1,1,0,0,1
btm,446,L,FALSE,783,2,0,1,0,0
btm,447,L,FALSE,255,2,0,0,1,1
btm,448,L,FALSE,509,1,0,0,0,0
btm,449,L,FALSE,620,1,1,0,1,0
btm,450,L,FALSE,286,2,0,0,1,1
btm,451,L,TRUE,781,2,1,0,1,1
btm,452,L,FALSE,650,1,0,0,0,1
btm,453,L,TRUE,727,2,1,1,1,1
btm,454,L,FALSE,728,1,0,0,0,0
btm,455,L,TRUE,649,1,1,0,0,1
btm,456,L,FALSE,599,2,0,0,1,0
btm,457,L,FALSE,674,2,0,1,0,1
btm,458,L,FALSE,406,1,1,0,1,0
btm,459,L,FALSE,487,2,1,1,1,1
btm,460,L,FALSE,618,1,0,1,1,1
btm,461,L,FALSE,647,2,1,0,0,0
btm,462,L,TRUE,838,2,0,0,0,1
btm,463,L,FALSE,836,1,0,1,1,0
btm,464,L,TRUE,756,1,0,1,0,1
btm,465,L,TRUE,702,1,1,1,1,1
btm,466,L,FALSE,733,1,0,0,1,0
btm,467,L,TRUE,754,2,1,1,1,1
btm,468,L,TRUE,671,1,0,1,1,1
btm,469,L,FALSE,558,2,0,0,0,0
btm,470,L,TRUE,498,2,0,0,0,1
btm,471,L,TRUE,810,1,0,0,1,1
btm,472,L,TRUE,466,2,1,1,1,1
btm,473,L,TRUE,540,1,1,0,1,1
btm,474,L,TRUE,648,2,0,0,1,1
btm,475,L,TRUE,508,2,1,0,1,0
btm,476,L,FALSE,554,1,1,1,1,0
btm,477,L,TRUE,462,1,1,0,1,1
btm,478,L,FALSE,482,1,0,0,1,1
btm,479,L,FALSE,307,2,0,0,1,1
btm,480,L,FALSE,935,1,0,1,0,1
btm,481,L,TRUE,291,1,1,0,1,1
btm,482,L,TRUE,428,1,1,0,1,0
btm,483,L,TRUE,361,1,0,0,0,1
btm,484,L,FALSE,588,2,1,0,1,0
btm,485,L,TRUE,284,2,1,0,0,1
btm,486,L,TRUE,501,1,1,0,1,1
btm,487,L,TRUE,364,1,1,1,1,1
btm,488,L,TRUE,766,1,0,1,0,0
btm,489,L,FALSE,525,1,0,1,0,1
btm,490,L,FALSE,885,2,0,1,1,0
btm,491,L,FALSE,467,1,1,1,1,0
btm,492,L,FALSE,295,2,0,0,1,1
btm,493,L,TRUE,388,2,1,0,1,1
btm,494,L,TRUE,533,2,0,0,1,0
btm,495,L,TRUE,493,2,0,1,1,1
btm,496,L,TRUE,550,2,0,1,1,1
btm,497,L,TRUE,424,2,1,0,1,1
btm,498,L,TRUE,682,1,1,1,1,1
btm,499,L,FALSE,486,2,1,0,1,1
btm,500,L,TRUE,295,2,1,0,1,1
subID,trialNum,cntBalance,correct,rt,winner,p1conf,p2conf,p1rslt,p2rslt
bsp,1,R,FALSE,192,2,0,1,1,1
bsp,2,R,FALSE,2730,2,1,1,0,0
bsp,3,R,TRUE,3615,2,0,0,1,0
bsp,4,R,FALSE,4330,2,1,0,0,0
bsp,5,R,FALSE,2572,1,0,0,0,0
bsp,6,R,TRUE,2508,2,0,0,1,0
bsp,7,R,FALSE,1600,2,0,0,1,1
bsp,8,R,TRUE,3520,2,0,1,1,0
bsp,9,R,TRUE,3632,1,1,0,0,0
bsp,10,R,FALSE,2318,2,1,0,1,1
bsp,11,R,TRUE,4383,1,1,0,1,1
bsp,12,R,TRUE,2526,1,1,1,1,0
bsp,13,R,FALSE,1844,1,0,0,0,1
bsp,14,R,TRUE,1771,1,1,0,1,0
bsp,15,R,TRUE,2064,2,1,1,1,1
bsp,16,R,TRUE,1534,2,0,1,1,1
bsp,17,R,TRUE,2034,1,1,0,1,0
bsp,18,R,FALSE,3660,2,0,0,0,1
bsp,19,R,FALSE,1598,1,0,0,0,1
bsp,20,R,TRUE,1552,2,0,0,1,1
bsp,21,R,TRUE,1743,2,0,1,1,1
bsp,22,R,FALSE,1661,1,0,0,1,1
bsp,23,R,TRUE,2660,2,0,1,1,1
bsp,24,R,FALSE,2508,1,1,1,0,1
bsp,25,R,FALSE,1476,1,1,0,1,0
bsp,26,R,TRUE,2160,1,1,0,1,1
bsp,27,R,FALSE,3234,1,1,0,0,0
bsp,28,R,TRUE,2570,1,1,0,1,0
bsp,29,R,FALSE,1599,1,0,0,0,1
bsp,30,R,FALSE,1759,1,1,0,1,0
bsp,31,R,TRUE,1616,2,0,1,1,1
bsp,32,R,TRUE,1262,2,0,1,1,1
bsp,33,R,TRUE,2400,1,0,1,0,1
bsp,34,R,FALSE,2558,1,0,0,0,1
bsp,35,R,TRUE,1360,2,1,1,1,1
bsp,36,R,TRUE,2030,1,0,1,1,1
bsp,37,R,FALSE,3565,1,1,1,0,1
bsp,38,R,TRUE,1215,2,1,0,1,0
bsp,39,R,FALSE,1134,1,0,1,1,1
bsp,40,R,FALSE,1457,1,1,1,0,1
bsp,41,R,TRUE,955,2,1,1,1,1
bsp,42,R,FALSE,1038,1,0,1,1,0
bsp,43,R,TRUE,1124,2,1,1,0,1
bsp,44,R,FALSE,1200,1,1,1,1,1
bsp,45,R,TRUE,1517,2,1,0,1,0
bsp,46,R,TRUE,1584,2,1,0,1,1
bsp,47,R,TRUE,1660,1,1,0,1,1
bsp,48,R,TRUE,1793,1,1,0,1,0
bsp,49,R,FALSE,2509,1,0,0,1,0
bsp,50,R,FALSE,1360,2,0,0,1,0
bsp,51,R,TRUE,1408,1,1,0,1,1
bsp,52,R,FALSE,1584,2,1,0,1,1
bsp,53,R,FALSE,2351,1,0,1,0,1
bsp,54,R,TRUE,1504,2,0,1,1,1
bsp,55,R,FALSE,1872,2,1,0,0,1
bsp,56,R,TRUE,1420,2,1,1,1,1
bsp,57,R,TRUE,1696,1,0,1,1,1
bsp,58,R,FALSE,1857,2,1,0,0,1
bsp,59,R,FALSE,1374,2,1,0,0,0
bsp,60,R,TRUE,1679,2,1,0,1,1
bsp,61,R,TRUE,1825,2,0,0,1,0
bsp,62,R,TRUE,927,1,0,0,1,1
bsp,63,R,FALSE,7008,1,0,1,0,1
bsp,64,R,TRUE,863,1,0,0,1,1
bsp,65,R,TRUE,1389,1,0,1,1,1
bsp,66,R,FALSE,1280,1,0,0,1,0
bsp,67,R,FALSE,1310,1,0,1,0,0
bsp,68,R,TRUE,1392,2,0,1,1,1
bsp,69,R,TRUE,2853,1,1,0,1,0
bsp,70,R,TRUE,1867,2,0,0,1,1
bsp,71,R,FALSE,1808,1,0,1,1,0
bsp,72,R,FALSE,1582,1,0,1,0,0
bsp,73,R,FALSE,1136,2,0,0,1,1
bsp,74,R,TRUE,1901,1,1,0,1,0
bsp,75,R,TRUE,1601,2,0,0,1,1
bsp,76,R,TRUE,1230,2,1,1,1,1
bsp,77,R,TRUE,1518,2,0,1,0,1
bsp,78,R,TRUE,1870,2,0,1,1,1
bsp,79,R,TRUE,1232,1,1,1,1,1
bsp,80,R,FALSE,3952,1,0,0,0,1
bsp,81,R,TRUE,1552,2,1,1,1,1
bsp,82,R,TRUE,1840,1,1,0,1,1
bsp,83,R,TRUE,5312,2,0,0,0,1
bsp,84,R,TRUE,2335,1,0,1,0,1
bsp,85,R,TRUE,1599,2,1,1,1,1
bsp,86,R,TRUE,3756,2,1,1,0,1
bsp,87,R,TRUE,2703,1,0,1,1,1
bsp,88,R,TRUE,3715,1,0,0,1,1
bsp,89,R,FALSE,2540,1,1,0,0,1
bsp,90,R,FALSE,1775,1,0,0,0,0
brk,brk,brk,brk,brk,brk,brk,brk,brk,brk
bsp,91,R,FALSE,3187,1,0,0,0,1
bsp,92,R,TRUE,971,2,1,1,1,1
bsp,93,R,TRUE,1359,2,0,1,0,1
bsp,94,R,TRUE,1776,2,1,1,0,1
bsp,95,R,TRUE,1375,1,1,1,1,1
bsp,96,R,TRUE,1552,1,0,0,1,1
bsp,97,R,TRUE,1859,2,1,0,1,1
bsp,98,R,TRUE,2668,2,0,0,1,1
bsp,99,R,TRUE,2350,1,1,0,1,0
bsp,100,R,FALSE,1869,1,0,0,0,1
bsp,101,R,TRUE,1488,2,1,0,1,1
bsp,102,R,TRUE,1632,1,0,1,1,1
bsp,103,R,TRUE,2319,1,1,0,1,1
bsp,104,R,TRUE,1746,2,1,1,1,1
bsp,105,R,FALSE,1449,1,1,1,1,1
bsp,106,R,TRUE,1902,2,0,1,1,1
bsp,107,R,FALSE,2287,1,0,0,1,0
bsp,108,R,TRUE,1152,2,0,0,1,1
bsp,109,R,TRUE,2130,1,1,0,1,1
bsp,110,R,TRUE,1771,2,1,0,1,0
bsp,111,R,TRUE,1439,2,0,1,1,1
bsp,112,R,TRUE,1474,2,0,1,1,1
bsp,113,R,TRUE,1949,2,0,0,0,1
bsp,114,R,TRUE,1325,2,0,0,1,1
bsp,115,R,TRUE,1182,2,1,0,1,1
bsp,116,R,FALSE,1886,1,0,0,1,1
bsp,117,R,TRUE,1680,2,1,0,1,0
bsp,118,R,TRUE,1763,2,0,1,1,1
bsp,119,R,FALSE,1451,1,0,1,1,0
bsp,120,R,TRUE,1007,1,1,1,1,0
bsp,121,R,FALSE,1760,2,1,1,0,1
bsp,122,R,FALSE,1374,1,1,0,0,1
bsp,123,R,TRUE,799,1,0,0,1,1
bsp,124,R,TRUE,2093,1,1,0,1,0
bsp,125,R,TRUE,1518,1,1,0,1,0
bsp,126,R,FALSE,1744,2,1,0,0,1
bsp,127,R,FALSE,1507,2,1,0,0,0
bsp,128,R,FALSE,938,1,1,0,1,0
bsp,129,R,TRUE,1118,1,1,1,1,1
bsp,130,R,FALSE,1776,1,1,1,0,1
bsp,131,R,TRUE,1166,2,0,0,1,1
bsp,132,R,TRUE,1966,1,1,1,1,1
bsp,133,R,FALSE,910,1,0,0,0,0
bsp,134,R,FALSE,2401,1,0,0,1,0
bsp,135,R,TRUE,1742,1,1,0,1,0
bsp,136,R,TRUE,1023,2,0,0,1,1
bsp,137,R,TRUE,1343,2,0,1,1,1
bsp,138,R,TRUE,1918,2,0,1,1,1
bsp,139,R,FALSE,1391,1,1,1,0,0
bsp,140,R,FALSE,848,1,1,1,1,1
bsp,141,R,TRUE,2400,1,0,1,0,1
bsp,142,R,TRUE,1280,2,0,0,0,1
bsp,143,R,FALSE,1184,1,0,1,1,1
bsp,144,R,FALSE,1788,2,0,1,1,0
bsp,145,R,TRUE,1440,1,0,0,1,1
bsp,146,R,TRUE,1169,2,0,1,1,1
bsp,147,R,TRUE,1728,2,1,1,1,0
bsp,148,R,TRUE,1632,2,0,1,1,1
bsp,149,R,FALSE,1439,1,0,1,0,0
bsp,150,R,TRUE,1297,1,1,1,1,1
bsp,151,R,TRUE,1758,2,0,1,1,0
bsp,152,R,TRUE,2479,1,1,1,0,1
bsp,153,R,TRUE,2128,2,1,0,1,0
bsp,154,R,FALSE,1626,1,1,0,0,0
bsp,155,R,FALSE,1647,1,0,0,0,1
bsp,156,R,FALSE,1457,1,1,0,0,0
bsp,157,R,FALSE,5364,1,0,0,1,0
bsp,158,R,FALSE,1150,1,0,0,1,0
bsp,159,R,FALSE,986,2,1,0,0,0
bsp,160,R,TRUE,1071,2,1,0,1,1
bsp,161,R,FALSE,1536,2,1,1,0,1
bsp,162,R,TRUE,1664,2,0,0,0,1
bsp,163,R,FALSE,1904,2,0,1,1,0
bsp,164,R,TRUE,2879,2,0,1,1,0
bsp,165,R,TRUE,2286,2,1,1,1,1
bsp,166,R,TRUE,1700,1,1,0,1,1
bsp,167,R,TRUE,1900,2,1,0,1,1
bsp,168,R,TRUE,3837,1,0,0,1,1
bsp,169,R,TRUE,2033,1,1,0,1,1
bsp,170,R,TRUE,1550,1,0,0,1,1
bsp,171,R,TRUE,1772,1,0,1,1,1
bsp,172,R,TRUE,1952,1,1,0,1,0
bsp,173,R,TRUE,1665,1,1,1,1,1
bsp,174,R,TRUE,2112,2,0,0,1,1
bsp,175,R,FALSE,1119,2,1,1,0,0
bsp,176,R,FALSE,1581,1,1,0,0,0
bsp,177,R,FALSE,2045,1,0,0,1,1
bsp,178,R,TRUE,2480,2,0,0,1,1
bsp,179,R,TRUE,916,1,1,1,1,1
bsp,180,R,FALSE,1916,1,1,1,0,1
brk,brk,brk,brk,brk,brk,brk,brk,brk,brk
bsp,181,R,TRUE,5076,1,1,1,1,1
bsp,182,R,TRUE,1699,2,0,1,1,1
bsp,183,R,TRUE,2379,1,0,1,0,1
bsp,184,R,FALSE,1021,1,0,1,0,0
bsp,185,R,TRUE,639,2,1,0,1,1
bsp,186,R,TRUE,1825,1,1,0,1,1
bsp,187,R,TRUE,3104,2,0,1,1,1
bsp,188,R,TRUE,1820,1,1,1,1,1
bsp,189,R,TRUE,1715,2,1,1,0,1
bsp,190,R,TRUE,3068,2,0,0,1,0
bsp,191,R,TRUE,845,2,1,1,1,1
bsp,192,R,TRUE,2112,1,1,0,0,1
bsp,193,R,TRUE,1664,2,1,0,1,0
bsp,194,R,FALSE,899,1,0,0,0,0
bsp,195,R,TRUE,987,2,0,0,1,1
bsp,196,R,TRUE,931,2,0,1,0,1
bsp,197,R,TRUE,1533,1,1,0,1,0
bsp,198,R,TRUE,1421,1,1,0,1,0
bsp,199,R,TRUE,912,2,0,1,1,1
bsp,200,R,TRUE,833,1,1,1,1,1
bsp,201,R,TRUE,1230,1,0,0,1,1
bsp,202,R,TRUE,1058,1,0,0,1,1
bsp,203,R,TRUE,1742,2,1,1,1,1
bsp,204,R,TRUE,2352,1,0,0,0,1
bsp,205,R,FALSE,1391,1,0,1,1,1
bsp,206,R,TRUE,1599,2,0,0,1,1
bsp,207,R,TRUE,1580,1,0,1,1,1
bsp,208,R,FALSE,1965,1,0,0,0,1
bsp,209,R,FALSE,1295,1,1,0,1,0
bsp,210,R,TRUE,1488,2,1,0,1,1
bsp,211,R,TRUE,1664,2,0,1,1,1
bsp,212,R,FALSE,529,1,1,0,1,1
bsp,213,R,TRUE,670,2,1,1,1,1
bsp,214,R,FALSE,816,1,1,0,0,1
bsp,215,R,FALSE,832,1,0,1,1,0
bsp,216,R,TRUE,1135,1,0,1,0,1
bsp,217,R,TRUE,1009,2,0,1,1,1
bsp,218,R,TRUE,1425,2,0,0,1,1
bsp,219,R,TRUE,3404,2,0,1,1,1
bsp,220,R,FALSE,1601,2,1,1,0,1
bsp,221,R,TRUE,544,1,1,0,1,0
bsp,222,R,TRUE,357,1,1,0,0,1
bsp,223,R,FALSE,845,2,1,1,0,1
bsp,224,R,TRUE,977,1,0,0,1,0
bsp,225,R,FALSE,1984,2,1,0,1,0
bsp,226,R,TRUE,1007,1,0,0,1,0
bsp,227,R,TRUE,959,2,0,1,1,1
bsp,228,R,FALSE,249,2,0,1,1,1
bsp,229,R,TRUE,816,1,0,0,1,0
bsp,230,R,TRUE,1201,1,0,1,1,1
bsp,231,R,FALSE,1537,2,0,1,0,0
bsp,232,R,TRUE,1408,1,1,0,1,1
bsp,233,R,TRUE,1682,2,0,1,1,1
bsp,234,R,TRUE,1105,1,1,1,1,1
bsp,235,R,FALSE,1648,1,1,0,0,1
bsp,236,R,FALSE,1010,2,1,0,0,0
bsp,237,R,TRUE,909,1,1,0,1,0
bsp,238,R,TRUE,991,1,0,1,1,1
bsp,239,R,TRUE,1212,2,1,0,1,0
bsp,240,R,FALSE,1042,1,1,1,0,0
bsp,241,R,TRUE,1120,2,0,1,1,1
bsp,242,R,TRUE,2001,1,1,1,1,0
bsp,243,R,TRUE,1488,1,1,1,1,1
bsp,244,R,TRUE,1026,2,0,1,1,1
bsp,245,R,TRUE,1201,2,1,1,1,1
bsp,246,R,TRUE,865,1,1,0,1,1
bsp,247,R,FALSE,1696,2,1,1,0,1
bsp,248,R,FALSE,1249,2,1,0,0,1
bsp,249,R,TRUE,908,1,0,0,1,1
bsp,250,R,FALSE,1136,1,1,0,1,0
bsp,251,R,TRUE,1633,1,1,1,0,1
bsp,252,R,FALSE,1198,2,0,0,1,1
bsp,253,R,FALSE,1600,1,0,1,1,0
bsp,254,R,FALSE,1422,1,1,1,0,0
bsp,255,R,FALSE,1232,2,0,0,1,0
bsp,256,R,TRUE,750,2,1,1,1,1
bsp,257,R,FALSE,1058,2,1,1,0,1
bsp,258,R,TRUE,1788,2,1,0,1,0
bsp,259,R,TRUE,2672,1,1,1,1,0
bsp,260,R,FALSE,1697,2,0,1,1,0
bsp,261,R,FALSE,3619,2,1,1,0,1
bsp,262,R,FALSE,1083,2,1,1,1,0
bsp,263,R,TRUE,1134,1,1,1,1,1
bsp,264,R,TRUE,1683,2,1,0,1,1
bsp,265,R,TRUE,4235,2,1,1,1,1
bsp,266,R,FALSE,1198,1,0,1,1,0
bsp,267,R,TRUE,987,1,1,1,1,1
bsp,268,R,TRUE,2304,1,0,1,0,1
bsp,269,R,TRUE,1796,2,0,1,1,1
bsp,270,R,TRUE,1499,1,0,0,1,1
brk,brk,brk,brk,brk,brk,brk,brk,brk,brk
bsp,271,R,FALSE,3570,2,0,0,0,1
bsp,272,R,TRUE,1552,2,1,0,1,1
bsp,273,R,TRUE,1391,1,1,0,0,1
bsp,274,R,TRUE,1055,2,1,1,1,1
bsp,275,R,FALSE,1007,2,0,0,0,0
bsp,276,R,FALSE,1420,2,1,1,0,1
bsp,277,R,FALSE,1551,1,0,1,0,1
bsp,278,R,TRUE,1392,2,0,1,1,1
bsp,279,R,TRUE,1103,1,1,0,1,1
bsp,280,R,TRUE,993,1,0,0,1,1
bsp,281,R,TRUE,1552,1,0,1,1,1
bsp,282,R,FALSE,2192,2,0,0,1,0
bsp,283,R,TRUE,862,2,1,1,1,1
bsp,284,R,TRUE,1134,2,1,1,1,1
bsp,285,R,TRUE,734,2,1,1,1,1
bsp,286,R,FALSE,4784,1,1,1,1,0
bsp,287,R,TRUE,1120,2,1,0,1,1
bsp,288,R,TRUE,1308,1,1,0,1,0
bsp,289,R,FALSE,1168,2,0,0,0,1
bsp,290,R,TRUE,1071,1,1,0,1,1
bsp,291,R,TRUE,3087,1,1,1,0,1
bsp,292,R,TRUE,3261,2,0,1,1,1
bsp,293,R,TRUE,1312,2,1,0,1,0
bsp,294,R,TRUE,5600,2,0,0,1,0
bsp,295,R,TRUE,1347,2,0,1,1,1
bsp,296,R,FALSE,1340,2,1,0,1,0
bsp,297,R,TRUE,2014,1,0,0,1,0
bsp,298,R,TRUE,3649,1,0,0,0,1
bsp,299,R,TRUE,1437,2,0,0,1,1
bsp,300,R,TRUE,1456,2,0,1,1,1
bsp,301,R,TRUE,1727,1,1,1,1,1
bsp,302,R,FALSE,1920,1,0,0,1,0
bsp,303,R,FALSE,1969,1,0,1,1,0
bsp,304,R,TRUE,975,2,0,1,1,1
bsp,305,R,TRUE,1075,1,1,1,1,0
bsp,306,R,TRUE,1355,1,0,0,1,0
bsp,307,R,TRUE,1312,2,0,1,1,1
bsp,308,R,TRUE,866,2,0,1,1,1
bsp,309,R,FALSE,955,1,0,1,1,1
bsp,310,R,TRUE,1056,1,1,1,1,1
bsp,311,R,TRUE,859,1,1,0,1,1
bsp,312,R,FALSE,1579,1,0,1,0,1
bsp,313,R,TRUE,1694,2,0,0,1,1
bsp,314,R,TRUE,991,1,1,0,1,1
bsp,315,R,TRUE,2284,1,0,1,0,1
bsp,316,R,TRUE,1023,2,1,1,1,1
bsp,317,R,FALSE,2543,2,1,0,1,0
bsp,318,R,TRUE,1199,1,0,0,1,1
bsp,319,R,TRUE,3565,2,0,1,1,1
bsp,320,R,TRUE,1137,1,1,1,1,1
bsp,321,R,TRUE,1616,2,0,0,1,1
bsp,322,R,TRUE,3105,1,1,1,1,0
bsp,323,R,FALSE,1200,2,1,0,0,0
bsp,324,R,TRUE,768,2,1,1,1,1
bsp,325,R,TRUE,3040,1,1,1,1,1
bsp,326,R,TRUE,1725,2,0,1,0,1
bsp,327,R,TRUE,990,1,0,0,1,1
bsp,328,R,TRUE,1295,2,0,1,1,1
bsp,329,R,TRUE,1698,2,1,0,1,1
bsp,330,R,TRUE,1627,2,1,0,1,1
bsp,331,R,TRUE,4178,1,1,1,1,1
bsp,332,R,TRUE,4909,2,0,1,1,1
bsp,333,R,TRUE,1232,2,0,1,1,1
bsp,334,R,FALSE,1315,1,0,1,0,0
bsp,335,R,TRUE,1403,2,0,1,1,1
bsp,336,R,TRUE,1406,1,0,0,1,1
bsp,337,R,TRUE,1458,2,0,1,1,1
bsp,338,R,TRUE,7669,2,1,1,0,1
bsp,339,R,FALSE,1472,1,0,0,0,0
bsp,340,R,TRUE,2192,1,1,1,1,0
bsp,341,R,TRUE,1757,1,0,1,1,1
bsp,342,R,TRUE,1408,2,1,1,1,1
bsp,343,R,TRUE,1248,2,1,1,1,1
bsp,344,R,FALSE,1245,1,1,1,0,0
bsp,345,R,TRUE,1198,2,1,1,1,1
bsp,346,R,TRUE,831,1,0,0,1,1
bsp,347,R,TRUE,1951,2,0,0,1,0
bsp,348,R,TRUE,1887,2,1,0,1,1
bsp,349,R,TRUE,1488,2,0,1,0,1
bsp,350,R,TRUE,1854,2,1,1,1,1
bsp,351,R,FALSE,1440,2,1,0,1,0
bsp,352,R,FALSE,1741,1,0,1,1,0
bsp,353,R,TRUE,1183,2,1,1,1,1
bsp,354,R,FALSE,1070,2,1,1,0,1
bsp,355,R,TRUE,1007,1,1,1,1,1
bsp,356,R,TRUE,829,2,1,1,1,1
bsp,357,R,TRUE,1821,1,0,0,1,0
bsp,358,R,TRUE,1185,2,0,0,1,1
bsp,359,R,TRUE,2097,2,1,1,1,0
bsp,360,R,TRUE,925,2,0,1,1,1
brk,brk,brk,brk,brk,brk,brk,brk,brk,brk
bsp,361,R,TRUE,7522,1,0,1,0,1
bsp,362,R,TRUE,1069,1,1,1,1,1
bsp,363,R,TRUE,1199,1,1,0,1,1
bsp,364,R,TRUE,1759,2,0,1,1,1
bsp,365,R,TRUE,1118,1,1,1,1,1
bsp,366,R,FALSE,1664,1,0,0,0,1
bsp,367,R,TRUE,1616,2,1,0,1,1
bsp,368,R,TRUE,1770,1,1,1,1,1
bsp,369,R,FALSE,975,1,1,1,0,0
bsp,370,R,TRUE,1697,1,1,0,1,0
bsp,371,R,TRUE,3262,1,0,0,1,0
bsp,372,R,TRUE,2334,1,0,1,0,1
bsp,373,R,TRUE,1006,2,0,0,1,1
bsp,374,R,FALSE,1580,1,1,1,0,0
bsp,375,R,FALSE,1936,1,1,0,0,0
bsp,376,R,TRUE,1261,1,0,0,1,1
bsp,377,R,TRUE,2866,1,0,0,1,0
bsp,378,R,TRUE,1819,2,0,1,0,1
bsp,379,R,FALSE,2112,1,0,0,0,1
bsp,380,R,TRUE,1184,2,1,1,1,1
bsp,381,R,TRUE,1340,1,0,1,0,1
bsp,382,R,TRUE,1023,2,0,0,1,1
bsp,383,R,FALSE,1090,2,1,0,0,1
bsp,384,R,TRUE,860,2,1,1,1,1
bsp,385,R,TRUE,1585,2,0,1,1,1
bsp,386,R,TRUE,1216,1,1,0,0,1
bsp,387,R,TRUE,1359,1,1,1,1,1
bsp,388,R,TRUE,1918,1,1,1,1,0
bsp,389,R,TRUE,1250,2,0,0,1,1
bsp,390,R,TRUE,1644,1,1,1,1,1
bsp,391,R,FALSE,1469,1,0,0,0,0
bsp,392,R,TRUE,988,2,0,0,1,1
bsp,393,R,TRUE,1503,1,1,0,1,1
bsp,394,R,TRUE,1503,2,0,0,0,1
bsp,395,R,TRUE,1280,2,1,1,1,1
bsp,396,R,TRUE,1598,1,0,1,1,1
bsp,397,R,FALSE,1262,2,0,0,0,0
bsp,398,R,TRUE,1007,2,0,0,1,1
bsp,399,R,FALSE,1742,1,1,0,0,1
bsp,400,R,TRUE,1822,2,0,1,1,1
bsp,401,R,TRUE,1696,2,1,1,0,1
bsp,402,R,TRUE,1266,2,1,0,1,0
bsp,403,R,FALSE,1594,1,1,0,0,1
bsp,404,R,FALSE,1679,1,0,1,0,0
bsp,405,R,TRUE,1600,1,1,1,1,1
bsp,406,R,FALSE,3759,2,1,1,1,0
bsp,407,R,FALSE,961,1,0,0,0,0
bsp,408,R,TRUE,1454,2,1,0,1,1
bsp,409,R,TRUE,2302,1,1,0,1,1
bsp,410,R,TRUE,1792,1,0,1,1,1
bsp,411,R,TRUE,2735,2,1,0,1,1
bsp,412,R,TRUE,6716,2,0,1,1,1
bsp,413,R,TRUE,4606,2,0,1,1,1
bsp,414,R,TRUE,1723,2,0,1,1,1
bsp,415,R,TRUE,1180,2,1,1,1,1
bsp,416,R,FALSE,2271,2,1,0,0,1
bsp,417,R,TRUE,1584,1,1,0,1,0
bsp,418,R,TRUE,1409,2,0,0,0,1
bsp,419,R,FALSE,1404,1,0,0,1,0
bsp,420,R,FALSE,1053,2,0,0,0,1
bsp,421,R,FALSE,1408,2,1,1,0,1
bsp,422,R,FALSE,782,2,1,0,0,1
bsp,423,R,FALSE,877,1,1,0,0,1
bsp,424,R,TRUE,992,1,0,0,1,1
bsp,425,R,TRUE,1343,2,0,0,0,1
bsp,426,R,FALSE,2513,1,0,0,0,1
bsp,427,R,FALSE,963,1,0,0,1,0
bsp,428,R,TRUE,1052,2,1,0,0,0
bsp,429,R,FALSE,1743,2,0,0,0,0
bsp,430,R,FALSE,1600,1,0,1,0,0
bsp,431,R,TRUE,1152,1,0,0,1,1
bsp,432,R,FALSE,2591,2,1,0,0,1
bsp,433,R,FALSE,865,2,1,0,0,0
bsp,434,R,TRUE,1610,1,1,1,0,1
bsp,435,R,TRUE,1199,2,1,1,1,1
bsp,436,R,FALSE,2210,2,0,1,1,0
bsp,437,R,TRUE,1532,2,0,1,1,0
bsp,438,R,TRUE,3069,1,1,1,1,1
bsp,439,R,TRUE,3133,2,0,0,1,1
bsp,440,R,FALSE,1390,2,1,0,0,0
bsp,441,R,FALSE,1167,2,1,0,0,1
bsp,442,R,TRUE,941,2,0,0,1,1
bsp,443,R,TRUE,735,1,1,0,1,1
bsp,444,R,TRUE,688,2,0,1,0,1
bsp,445,R,TRUE,910,1,1,1,1,1
bsp,446,R,TRUE,1264,2,0,1,1,1
bsp,447,R,FALSE,1516,2,0,0,1,0
bsp,448,R,TRUE,1037,1,0,0,1,1
bsp,449,R,TRUE,1119,2,1,1,0,1
bsp,450,R,FALSE,1150,1,0,1,1,0
subID,trialNum,cntBalance,correct,rt,winner,p1conf,p2conf,p1rslt,p2rslt
ht1,1,R,FALSE,4621,2,1,0,1,1
ht1,2,R,FALSE,6186,2,1,0,1,0
ht1,3,R,FALSE,2955,2,1,0,1,0
ht1,4,R,TRUE,6830,2,0,1,1,1
ht1,5,R,FALSE,6413,2,1,1,1,0
ht1,6,R,TRUE,5262,2,1,1,1,0
ht1,7,R,TRUE,3871,2,1,0,1,1
ht1,8,R,TRUE,4330,1,0,0,1,1
ht1,9,R,TRUE,4499,2,0,1,1,1
ht1,10,R,TRUE,5038,1,0,1,1,1
ht1,11,R,TRUE,4319,2,0,0,1,1
ht1,12,R,TRUE,4541,2,0,0,1,0
ht1,13,R,TRUE,3823,2,1,0,1,1
ht1,14,R,TRUE,1950,2,1,1,1,1
ht1,15,R,TRUE,2381,2,0,1,1,1
ht1,16,R,TRUE,3118,2,1,1,1,1
ht1,17,R,TRUE,2301,2,1,1,1,1
ht1,18,R,FALSE,2013,2,0,0,0,1
ht1,19,R,TRUE,3776,1,1,1,1,1
ht1,20,R,TRUE,2842,2,0,1,0,1
ht1,21,R,TRUE,1600,1,1,0,1,1
ht1,22,R,TRUE,3904,2,1,0,1,1
ht1,23,R,FALSE,2144,1,0,0,0,1
ht1,24,R,FALSE,2795,2,1,0,0,1
ht1,25,R,TRUE,2766,1,1,0,1,0
ht1,26,R,TRUE,1485,2,1,1,1,1
ht1,27,R,TRUE,1391,2,1,1,1,1
ht1,28,R,FALSE,1134,2,1,1,0,0
ht1,29,R,TRUE,2367,2,1,1,1,1
ht1,30,R,TRUE,1950,2,1,1,1,1
ht1,31,R,TRUE,4430,1,1,1,1,1
ht1,32,R,FALSE,1861,1,1,0,0,0
ht1,33,R,FALSE,2202,1,1,0,0,1
ht1,34,R,FALSE,7296,1,0,0,1,0
ht1,35,R,TRUE,5278,2,0,0,1,0
ht1,36,R,TRUE,6078,1,0,0,0,1
ht1,37,R,TRUE,2684,2,0,1,1,1
ht1,38,R,TRUE,3070,1,0,1,0,1
ht1,39,R,FALSE,4241,1,1,0,0,1
ht1,40,R,TRUE,1696,1,0,1,1,1
ht1,41,R,FALSE,2736,1,0,0,1,0
ht1,42,R,TRUE,3263,1,0,0,1,0
ht1,43,R,FALSE,7357,1,0,0,0,1
ht1,44,R,TRUE,5392,1,1,1,1,0
ht1,45,R,TRUE,1601,1,0,0,1,0
ht1,46,R,TRUE,2417,1,0,0,1,0
ht1,47,R,FALSE,4736,1,0,1,1,0
ht1,48,R,TRUE,4554,2,0,1,0,1
ht1,49,R,TRUE,2819,2,0,1,1,1
ht1,50,R,TRUE,1259,2,0,1,1,1
ht1,51,R,TRUE,1312,1,1,1,1,1
ht1,52,R,TRUE,1392,1,1,1,0,1
ht1,53,R,TRUE,1983,2,1,0,1,1
ht1,54,R,FALSE,1860,2,0,1,0,0
ht1,55,R,TRUE,3534,1,1,1,1,0
ht1,56,R,TRUE,1333,1,0,0,1,1
ht1,57,R,TRUE,2129,1,0,1,1,0
ht1,58,R,TRUE,1598,1,0,0,1,0
ht1,59,R,TRUE,1642,2,0,0,1,0
ht1,60,R,TRUE,1087,2,0,0,1,1
ht1,61,R,FALSE,1169,1,1,1,0,0
ht1,62,R,TRUE,2475,1,1,0,1,1
ht1,63,R,TRUE,1598,1,0,0,1,1
ht1,64,R,FALSE,1779,2,1,1,0,1
ht1,65,R,TRUE,1499,1,0,1,1,1
ht1,66,R,TRUE,3805,1,0,1,1,1
ht1,67,R,TRUE,2542,1,1,0,1,0
ht1,68,R,FALSE,2494,1,0,1,0,0
ht1,69,R,FALSE,1422,1,1,0,0,1
ht1,70,R,TRUE,3650,1,0,0,1,1
ht1,71,R,FALSE,4495,1,1,1,0,1
ht1,72,R,FALSE,1296,2,0,0,0,0
ht1,73,R,TRUE,3869,2,0,0,1,1
ht1,74,R,TRUE,6750,1,0,0,1,1
ht1,75,R,TRUE,2018,1,1,1,1,0
ht1,76,R,FALSE,2768,2,1,1,1,0
ht1,77,R,FALSE,3404,1,0,1,1,1
ht1,78,R,FALSE,2450,2,0,1,1,1
ht1,79,R,FALSE,2907,2,0,1,0,0
ht1,80,R,FALSE,2513,1,1,0,0,1
ht1,81,R,TRUE,1601,2,0,1,1,1
ht1,82,R,FALSE,1578,2,0,1,0,0
ht1,83,R,TRUE,1312,1,0,0,1,1
ht1,84,R,TRUE,1549,1,1,0,1,0
ht1,85,R,TRUE,2366,2,0,0,1,1
ht1,86,R,TRUE,1951,2,1,0,1,1
ht1,87,R,TRUE,2172,1,1,1,0,1
ht1,88,R,FALSE,1887,1,0,1,0,0
ht1,89,R,TRUE,3723,2,1,0,1,0
ht1,90,R,FALSE,5547,2,0,0,0,1
ht1,91,R,TRUE,2367,1,0,0,1,1
ht1,92,R,TRUE,1134,1,1,0,1,0
ht1,93,R,TRUE,1470,1,0,1,1,1
ht1,94,R,FALSE,2448,1,0,1,1,0
ht1,95,R,TRUE,2030,2,0,1,0,1
ht1,96,R,TRUE,3701,2,0,0,1,1
ht1,97,R,TRUE,1920,1,0,0,0,1
ht1,98,R,TRUE,1486,1,0,0,1,1
ht1,99,R,TRUE,3201,1,1,1,1,1
ht1,100,R,FALSE,11504,1,0,0,0,0
brk,brk,brk,brk,brk,brk,brk,brk,brk,brk
ht1,101,R,TRUE,20487,2,0,0,1,1
ht1,102,R,TRUE,1202,1,1,1,1,1
ht1,103,R,TRUE,1373,2,1,0,1,0
ht1,104,R,TRUE,1296,1,1,0,1,1
ht1,105,R,TRUE,1498,2,1,0,1,1
ht1,106,R,TRUE,1442,1,0,0,0,1
ht1,107,R,FALSE,1566,2,1,0,0,1
ht1,108,R,TRUE,1818,1,0,1,0,1
ht1,109,R,TRUE,2303,1,1,1,1,0
ht1,110,R,FALSE,1998,2,1,0,0,0
ht1,111,R,TRUE,1550,1,0,1,1,1
ht1,112,R,TRUE,1633,2,0,0,1,1
ht1,113,R,FALSE,940,1,1,1,0,1
ht1,114,R,TRUE,1426,2,1,1,1,1
ht1,115,R,TRUE,1675,1,0,1,1,1
ht1,116,R,FALSE,1443,2,1,0,0,1
ht1,117,R,TRUE,1307,2,1,1,1,1
ht1,118,R,TRUE,1278,2,0,1,1,1
ht1,119,R,FALSE,1118,1,1,0,0,0
ht1,120,R,TRUE,1117,2,0,1,1,1
ht1,121,R,TRUE,942,1,1,0,1,1
ht1,122,R,TRUE,1487,1,1,0,1,0
ht1,123,R,TRUE,1630,2,0,0,1,1
ht1,124,R,TRUE,1551,1,1,1,1,1
ht1,125,R,TRUE,1667,2,0,0,1,1
ht1,126,R,TRUE,1900,2,1,0,1,1
ht1,127,R,TRUE,877,1,1,0,1,1
ht1,128,R,FALSE,1056,2,1,1,0,0
ht1,129,R,TRUE,1165,1,1,0,1,0
ht1,130,R,TRUE,1917,1,1,1,0,1
ht1,131,R,TRUE,2801,2,1,0,1,0
ht1,132,R,TRUE,1499,1,1,0,1,0
ht1,133,R,TRUE,1470,1,0,1,1,1
ht1,134,R,TRUE,1552,1,1,0,1,1
ht1,135,R,FALSE,1346,2,0,1,0,0
ht1,136,R,FALSE,1099,1,0,1,1,0
ht1,137,R,TRUE,1758,1,0,1,1,1
ht1,138,R,TRUE,1092,1,1,0,1,0
ht1,139,R,TRUE,1306,1,0,0,1,1
ht1,140,R,TRUE,1810,1,0,0,1,0
ht1,141,R,TRUE,1377,2,1,0,1,1
ht1,142,R,FALSE,1488,2,0,0,0,0
ht1,143,R,TRUE,1009,1,0,0,1,1
ht1,144,R,TRUE,1243,2,1,0,1,0
ht1,145,R,FALSE,1215,2,1,1,0,1
ht1,146,R,TRUE,2352,1,1,1,1,1
ht1,147,R,FALSE,1071,1,0,1,0,0
ht1,148,R,FALSE,1436,1,1,0,0,0
ht1,149,R,TRUE,1711,1,0,1,1,1
ht1,150,R,TRUE,1247,1,0,1,1,1
ht1,151,R,TRUE,1647,1,0,1,0,1
ht1,152,R,TRUE,1072,1,0,0,1,1
ht1,153,R,FALSE,1615,2,1,1,1,0
ht1,154,R,TRUE,1424,1,1,1,1,1
ht1,155,R,FALSE,1489,2,0,0,1,1
ht1,156,R,FALSE,1759,1,0,1,1,0
ht1,157,R,TRUE,1181,1,0,1,1,1
ht1,158,R,FALSE,1104,2,1,1,0,1
ht1,159,R,FALSE,1217,2,0,0,0,1
ht1,160,R,TRUE,1099,2,1,1,1,1
ht1,161,R,TRUE,1058,1,0,1,1,1
ht1,162,R,TRUE,1900,2,0,0,1,1
ht1,163,R,FALSE,1422,1,1,0,0,1
ht1,164,R,TRUE,2530,2,0,0,1,1
ht1,165,R,TRUE,1436,2,0,0,1,1
ht1,166,R,TRUE,1839,1,1,0,0,1
ht1,167,R,TRUE,1663,2,0,0,1,1
ht1,168,R,TRUE,1056,1,1,1,1,1
ht1,169,R,TRUE,1278,1,0,1,1,1
ht1,170,R,TRUE,1120,1,1,1,1,1
ht1,171,R,FALSE,1805,2,0,0,1,0
ht1,172,R,TRUE,1760,1,0,1,1,1
ht1,173,R,TRUE,1825,1,1,1,0,1
ht1,174,R,TRUE,1536,1,0,1,0,1
ht1,175,R,TRUE,1632,1,0,1,1,1
ht1,176,R,TRUE,1950,1,0,0,0,1
ht1,177,R,TRUE,1294,1,0,1,1,1
ht1,178,R,TRUE,1440,2,1,0,1,1
ht1,179,R,FALSE,927,2,0,1,0,0
ht1,180,R,FALSE,1950,2,1,1,1,0
ht1,181,R,TRUE,1394,1,0,1,1,1
ht1,182,R,FALSE,1711,1,0,0,0,0
ht1,183,R,TRUE,960,1,1,0,1,1
ht1,184,R,TRUE,1183,1,0,1,1,1
ht1,185,R,FALSE,1265,2,0,0,0,1
ht1,186,R,FALSE,1341,1,0,0,0,0
ht1,187,R,TRUE,5357,1,0,0,1,0
ht1,188,R,TRUE,1103,1,1,0,1,0
ht1,189,R,FALSE,1200,2,0,0,1,1
ht1,190,R,TRUE,1520,1,0,0,1,1
ht1,191,R,TRUE,1393,1,1,0,1,0
ht1,192,R,TRUE,1371,2,0,0,1,1
ht1,193,R,TRUE,1968,2,0,1,1,1
ht1,194,R,TRUE,2000,2,1,1,1,1
ht1,195,R,TRUE,1871,2,0,1,1,1
ht1,196,R,TRUE,2000,2,1,0,1,1
ht1,197,R,TRUE,1454,2,0,1,1,1
ht1,198,R,FALSE,1327,2,1,1,0,0
ht1,199,R,TRUE,1120,1,0,1,1,1
ht1,200,R,TRUE,1297,1,0,1,1,1
brk,brk,brk,brk,brk,brk,brk,brk,brk,brk
ht1,201,R,TRUE,2953,1,1,1,1,1
ht1,202,R,FALSE,2493,2,1,1,0,1
ht1,203,R,TRUE,1718,2,1,1,1,1
ht1,204,R,TRUE,1379,2,0,1,1,1
ht1,205,R,TRUE,1231,2,1,1,1,1
ht1,206,R,FALSE,1167,1,0,1,0,0
ht1,207,R,TRUE,1519,2,1,0,1,0
ht1,208,R,TRUE,768,1,1,0,1,1
ht1,209,R,FALSE,1153,1,1,0,0,1
ht1,210,R,TRUE,1010,2,0,0,1,1
ht1,211,R,TRUE,1727,2,1,0,1,1
ht1,212,R,FALSE,1154,2,0,1,1,0
ht1,213,R,TRUE,1024,2,1,0,1,0
ht1,214,R,TRUE,1983,2,1,1,1,1
ht1,215,R,TRUE,4269,1,0,0,1,0
ht1,216,R,TRUE,2126,2,0,1,1,1
ht1,217,R,TRUE,1249,2,1,0,1,1
ht1,218,R,TRUE,1086,1,0,0,1,1
ht1,219,R,FALSE,1322,1,1,1,0,1
ht1,220,R,TRUE,3698,2,1,0,1,0
ht1,221,R,TRUE,780,1,0,0,1,1
ht1,222,R,TRUE,1346,1,1,0,1,1
ht1,223,R,TRUE,1200,2,0,0,1,1
ht1,224,R,FALSE,863,1,0,1,0,0
ht1,225,R,FALSE,1855,1,0,0,0,0
ht1,226,R,TRUE,1999,1,0,0,1,0
ht1,227,R,TRUE,1569,1,1,1,1,1
ht1,228,R,TRUE,976,2,1,1,1,1
ht1,229,R,TRUE,1041,2,1,1,1,1
ht1,230,R,TRUE,1662,2,1,0,1,1
ht1,231,R,TRUE,811,2,1,1,1,1
ht1,232,R,TRUE,1124,1,1,1,1,1
ht1,233,R,FALSE,1178,1,0,1,0,0
ht1,234,R,TRUE,1200,1,1,0,1,1
ht1,235,R,TRUE,1584,2,0,1,1,1
ht1,236,R,TRUE,1007,2,1,1,1,1
ht1,237,R,TRUE,1054,2,1,1,1,1
ht1,238,R,TRUE,1054,2,1,0,1,0
ht1,239,R,FALSE,943,1,1,1,0,1
ht1,240,R,TRUE,1168,2,0,1,1,1
ht1,241,R,TRUE,876,1,0,0,1,1
ht1,242,R,TRUE,1902,1,1,1,0,1
ht1,243,R,TRUE,1088,1,1,1,1,1
ht1,244,R,TRUE,1329,1,0,0,1,1
ht1,245,R,FALSE,1452,2,1,1,0,1
ht1,246,R,TRUE,2432,2,1,0,1,1
ht1,247,R,FALSE,939,2,0,0,1,0
ht1,248,R,FALSE,1502,2,0,0,0,0
ht1,249,R,TRUE,1531,2,1,0,1,1
ht1,250,R,TRUE,844,1,1,0,1,1
ht1,251,R,TRUE,889,2,1,0,1,0
ht1,252,R,FALSE,1296,1,1,0,0,0
ht1,253,R,TRUE,926,1,0,0,1,1
ht1,254,R,TRUE,1408,1,0,1,0,1
ht1,255,R,FALSE,1708,2,1,1,0,1
ht1,256,R,TRUE,1583,1,0,1,1,1
ht1,257,R,TRUE,1485,1,0,0,0,1
ht1,258,R,TRUE,1552,2,0,0,1,1
ht1,259,R,TRUE,1756,2,0,0,1,1
ht1,260,R,TRUE,1615,1,0,1,1,1
ht1,261,R,FALSE,2288,1,1,0,0,0
ht1,262,R,TRUE,2274,1,1,1,0,1
ht1,263,R,TRUE,1309,2,1,1,1,1
ht1,264,R,FALSE,2287,1,1,1,1,0
ht1,265,R,FALSE,1422,2,1,0,0,0
ht1,266,R,TRUE,2159,2,1,0,1,1
ht1,267,R,TRUE,1853,2,0,0,0,1
ht1,268,R,FALSE,1316,1,0,1,1,0
ht1,269,R,TRUE,859,1,1,0,1,1
ht1,270,R,TRUE,961,1,1,1,1,1
ht1,271,R,FALSE,1215,2,1,1,0,1
ht1,272,R,TRUE,2434,1,1,1,1,0
ht1,273,R,TRUE,876,1,1,1,1,1
ht1,274,R,FALSE,1216,2,0,0,1,0
ht1,275,R,TRUE,975,1,0,0,1,1
ht1,276,R,TRUE,1102,1,0,1,1,1
ht1,277,R,FALSE,2350,2,1,1,1,0
ht1,278,R,TRUE,1215,1,1,1,1,1
ht1,279,R,FALSE,1039,1,1,1,0,1
ht1,280,R,TRUE,2928,2,1,1,0,1
ht1,281,R,TRUE,1228,2,1,1,0,1
ht1,282,R,FALSE,1328,2,1,0,0,0
ht1,283,R,FALSE,1440,2,0,1,1,0
ht1,284,R,TRUE,1425,2,0,0,1,1
ht1,285,R,TRUE,1053,2,1,1,1,1
ht1,286,R,TRUE,1247,1,0,1,1,1
ht1,287,R,TRUE,1055,2,0,1,0,1
ht1,288,R,TRUE,860,2,0,1,0,1
ht1,289,R,TRUE,1535,2,1,1,0,1
ht1,290,R,TRUE,912,2,0,1,1,1
ht1,291,R,TRUE,799,2,1,1,1,1
ht1,292,R,TRUE,1200,1,1,1,1,1
ht1,293,R,TRUE,1291,1,0,0,1,1
ht1,294,R,TRUE,847,1,0,1,1,1
ht1,295,R,TRUE,1840,2,0,1,0,1
ht1,296,R,FALSE,1168,1,0,1,1,0
ht1,297,R,TRUE,1376,2,0,0,1,1
ht1,298,R,FALSE,1550,1,0,0,0,1
ht1,299,R,TRUE,1568,2,1,1,1,1
ht1,300,R,TRUE,1024,2,1,1,1,1
brk,brk,brk,brk,brk,brk,brk,brk,brk,brk
ht1,301,R,FALSE,11280,2,0,0,1,0
ht1,302,R,TRUE,1309,2,1,0,1,0
ht1,303,R,TRUE,1231,2,1,0,1,1
ht1,304,R,TRUE,1791,2,0,0,0,1
ht1,305,R,TRUE,1211,2,0,1,1,1
ht1,306,R,FALSE,972,1,0,0,1,0
ht1,307,R,TRUE,2544,1,0,1,1,1
ht1,308,R,FALSE,2975,1,0,1,1,0
ht1,309,R,TRUE,2591,1,0,0,1,1
ht1,310,R,TRUE,1776,2,1,0,1,1
ht1,311,R,TRUE,1115,2,0,0,1,1
ht1,312,R,TRUE,2417,2,0,0,1,1
ht1,313,R,TRUE,1083,1,1,0,1,0
ht1,314,R,TRUE,1215,2,1,1,1,1
ht1,315,R,FALSE,2205,1,0,0,0,1
ht1,316,R,TRUE,1102,2,1,1,1,1
ht1,317,R,TRUE,1375,1,0,0,1,0
ht1,318,R,TRUE,1020,2,0,1,1,1
ht1,319,R,TRUE,1712,2,1,0,1,1
ht1,320,R,TRUE,1484,2,1,0,1,0
ht1,321,R,TRUE,974,1,1,0,1,0
ht1,322,R,TRUE,1089,1,0,1,1,1
ht1,323,R,TRUE,891,2,1,1,1,1
ht1,324,R,TRUE,879,2,1,1,1,1
ht1,325,R,TRUE,1279,2,0,1,1,1
ht1,326,R,FALSE,1342,1,0,0,0,0
ht1,327,R,FALSE,817,2,0,0,0,0
ht1,328,R,TRUE,1471,1,1,0,1,0
ht1,329,R,TRUE,1068,1,1,0,1,1
ht1,330,R,TRUE,1149,1,0,1,1,1
ht1,331,R,TRUE,1216,2,0,1,1,1
ht1,332,R,TRUE,956,2,1,0,1,1
ht1,333,R,TRUE,3244,1,1,1,0,1
ht1,334,R,TRUE,1023,2,1,1,1,1
ht1,335,R,TRUE,943,1,1,0,1,0
ht1,336,R,FALSE,990,2,0,1,0,0
ht1,337,R,TRUE,1966,1,0,0,1,1
ht1,338,R,TRUE,1998,1,1,0,1,1
ht1,339,R,TRUE,876,1,0,1,1,1
ht1,340,R,TRUE,866,1,1,0,1,1
ht1,341,R,FALSE,1916,2,1,1,0,1
ht1,342,R,FALSE,2238,2,1,1,1,0
ht1,343,R,TRUE,1504,2,1,0,1,0
ht1,344,R,TRUE,717,2,0,1,1,1
ht1,345,R,TRUE,4353,2,0,0,1,0
ht1,346,R,TRUE,861,1,1,0,1,1
ht1,347,R,FALSE,1552,2,1,1,1,0
ht1,348,R,FALSE,915,1,1,0,0,0
ht1,349,R,TRUE,1372,2,1,0,1,0
ht1,350,R,TRUE,1086,1,1,1,1,0
ht1,351,R,TRUE,1583,2,1,1,1,0
ht1,352,R,TRUE,1247,2,1,1,1,1
ht1,353,R,FALSE,895,1,0,1,1,0
ht1,354,R,TRUE,991,1,0,1,1,1
ht1,355,R,FALSE,799,2,1,0,0,1
ht1,356,R,TRUE,1182,1,0,1,0,1
ht1,357,R,TRUE,845,1,0,0,1,1
ht1,358,R,FALSE,750,2,0,0,0,0
ht1,359,R,TRUE,783,1,1,1,1,1
ht1,360,R,TRUE,1183,2,1,1,1,1
ht1,361,R,TRUE,1134,1,1,1,1,0
ht1,362,R,TRUE,2844,2,1,0,1,0
ht1,363,R,TRUE,1310,1,1,1,1,1
ht1,364,R,TRUE,992,1,0,0,1,1
ht1,365,R,TRUE,929,2,0,0,1,1
ht1,366,R,FALSE,1419,2,0,1,1,0
ht1,367,R,TRUE,782,2,0,1,0,1
ht1,368,R,TRUE,767,1,0,1,1,1
ht1,369,R,TRUE,768,2,1,1,1,1
ht1,370,R,FALSE,897,2,0,0,0,0
ht1,371,R,FALSE,941,2,0,0,1,0
ht1,372,R,TRUE,847,1,1,0,1,0
ht1,373,R,TRUE,798,2,1,0,1,1
ht1,374,R,TRUE,912,1,1,1,1,1
ht1,375,R,TRUE,1119,2,0,0,1,0
ht1,376,R,FALSE,991,2,0,0,1,1
ht1,377,R,TRUE,751,1,1,0,1,0
ht1,378,R,TRUE,1184,2,1,0,1,1
ht1,379,R,TRUE,1019,1,1,1,1,1
ht1,380,R,TRUE,1022,1,0,0,1,0
ht1,381,R,TRUE,1809,2,0,1,1,1
ht1,382,R,FALSE,1165,2,0,0,0,1
ht1,383,R,FALSE,1386,2,1,0,0,1
ht1,384,R,TRUE,1503,2,1,0,1,1
ht1,385,R,TRUE,812,2,1,0,1,1
ht1,386,R,TRUE,962,1,1,1,1,1
ht1,387,R,TRUE,1051,2,0,0,1,1
ht1,388,R,FALSE,864,2,1,0,0,0
ht1,389,R,TRUE,1232,2,0,0,0,1
ht1,390,R,TRUE,1132,2,1,0,1,0
ht1,391,R,FALSE,923,2,1,0,0,1
ht1,392,R,TRUE,942,1,0,1,1,1
ht1,393,R,TRUE,640,1,1,0,1,1
ht1,394,R,FALSE,797,1,0,0,1,0
ht1,395,R,TRUE,877,2,1,1,1,0
ht1,396,R,TRUE,752,2,1,1,1,1
ht1,397,R,TRUE,929,2,1,0,1,0
ht1,398,R,TRUE,1052,2,0,0,1,1
ht1,399,R,TRUE,1168,2,1,1,1,0
ht1,400,R,TRUE,1072,1,1,0,1,0
brk,brk,brk,brk,brk,brk,brk,brk,brk,brk
ht1,401,R,TRUE,1996,2,0,1,1,1
ht1,402,R,TRUE,907,1,1,1,1,1
ht1,403,R,TRUE,1039,2,1,0,1,1
ht1,404,R,TRUE,768,1,0,1,0,1
ht1,405,R,TRUE,893,2,0,1,0,1
ht1,406,R,TRUE,991,1,0,1,0,1
ht1,407,R,TRUE,861,2,1,1,1,1
ht1,408,R,TRUE,828,1,0,0,1,1
ht1,409,R,FALSE,1246,1,1,1,1,0
ht1,410,R,TRUE,800,2,0,1,0,1
ht1,411,R,TRUE,863,1,0,1,1,1
ht1,412,R,TRUE,1166,2,0,0,1,0
ht1,413,R,TRUE,914,2,0,0,1,0
ht1,414,R,TRUE,1182,1,0,0,1,1
ht1,415,R,FALSE,1165,1,0,0,0,1
ht1,416,R,TRUE,1115,1,1,0,1,0
ht1,417,R,FALSE,876,1,0,0,1,0
ht1,418,R,TRUE,738,1,1,0,1,0
ht1,419,R,TRUE,715,2,1,1,1,1
ht1,420,R,TRUE,798,2,0,1,1,1
ht1,421,R,FALSE,1036,1,1,0,1,0
ht1,422,R,TRUE,863,1,1,0,1,0
ht1,423,R,TRUE,895,1,0,1,1,1
ht1,424,R,TRUE,781,1,1,1,1,1
ht1,425,R,TRUE,989,2,1,1,1,1
ht1,426,R,FALSE,2559,2,1,1,0,1
ht1,427,R,TRUE,1123,1,1,0,1,1
ht1,428,R,TRUE,1354,1,0,1,0,1
ht1,429,R,FALSE,1346,1,0,0,0,1
ht1,430,R,TRUE,987,2,1,1,1,1
ht1,431,R,FALSE,862,2,0,1,1,0
ht1,432,R,TRUE,1053,2,0,0,1,1
ht1,433,R,TRUE,814,1,1,0,1,1
ht1,434,R,FALSE,752,2,0,0,1,0
ht1,435,R,TRUE,733,1,1,0,1,0
ht1,436,R,TRUE,943,1,0,1,1,1
ht1,437,R,TRUE,1552,2,0,0,1,1
ht1,438,R,TRUE,941,2,0,0,1,1
ht1,439,R,FALSE,972,1,0,0,0,1
ht1,440,R,TRUE,912,1,0,0,1,0
ht1,441,R,TRUE,972,1,1,1,1,1
ht1,442,R,TRUE,876,2,1,0,1,1
ht1,443,R,FALSE,959,1,0,1,1,0
ht1,444,R,TRUE,864,1,0,0,1,1
ht1,445,R,FALSE,1024,1,1,0,0,0
ht1,446,R,TRUE,972,2,0,1,1,1
ht1,447,R,TRUE,1132,1,0,1,1,1
ht1,448,R,FALSE,1024,2,1,0,0,1
ht1,449,R,TRUE,971,1,0,1,0,1
ht1,450,R,TRUE,893,2,1,0,1,0
ht1,451,R,TRUE,880,2,1,1,1,0
ht1,452,R,TRUE,1451,1,1,1,0,1
ht1,453,R,TRUE,1039,1,1,0,1,1
ht1,454,R,TRUE,989,2,0,0,0,1
ht1,455,R,TRUE,1388,1,1,1,1,0
ht1,456,R,TRUE,831,1,1,1,1,1
ht1,457,R,TRUE,1488,2,0,0,1,0
ht1,458,R,FALSE,892,2,1,0,0,1
ht1,459,R,TRUE,863,2,1,1,1,1
ht1,460,R,TRUE,972,1,0,1,1,1
ht1,461,R,TRUE,1534,1,0,0,0,1
ht1,462,R,FALSE,893,1,0,0,1,0
ht1,463,R,TRUE,898,1,1,1,1,1
ht1,464,R,TRUE,876,1,1,1,1,1
ht1,465,R,TRUE,1024,1,0,1,1,1
ht1,466,R,FALSE,941,1,1,0,0,1
ht1,467,R,TRUE,1491,2,1,0,1,1
ht1,468,R,TRUE,781,1,0,1,0,1
ht1,469,R,TRUE,2491,1,1,1,1,0
ht1,470,R,TRUE,1149,2,1,1,1,1
ht1,471,R,TRUE,1375,2,1,1,0,1
ht1,472,R,TRUE,1484,1,0,0,1,1
ht1,473,R,TRUE,1088,1,0,1,1,1
ht1,474,R,TRUE,895,1,0,1,0,1
ht1,475,R,TRUE,848,2,1,1,1,1
ht1,476,R,TRUE,1100,2,0,0,1,0
ht1,477,R,TRUE,1068,1,0,0,1,0
ht1,478,R,TRUE,1135,1,0,0,1,1
ht1,479,R,TRUE,861,2,0,1,0,1
ht1,480,R,FALSE,734,2,1,0,0,1
ht1,481,R,TRUE,864,1,0,0,1,1
ht1,482,R,TRUE,1039,1,0,1,1,1
ht1,483,R,FALSE,781,1,0,1,1,0
ht1,484,R,TRUE,844,2,0,1,1,1
ht1,485,R,TRUE,990,2,1,0,1,1
ht1,486,R,TRUE,940,1,1,1,1,1
ht1,487,R,TRUE,592,1,1,0,1,0
ht1,488,R,TRUE,971,1,0,1,0,1
ht1,489,R,TRUE,915,2,0,1,1,1
ht1,490,R,FALSE,700,1,1,1,0,1
ht1,491,R,TRUE,815,2,1,1,0,1
ht1,492,R,TRUE,847,1,0,0,1,1
ht1,493,R,TRUE,732,1,0,0,1,1
ht1,494,R,TRUE,1182,2,0,1,1,1
ht1,495,R,TRUE,1005,1,1,1,1,1
ht1,496,R,TRUE,941,1,1,0,1,0
ht1,497,R,TRUE,818,2,1,1,1,1
ht1,498,R,TRUE,844,1,1,0,1,1
ht1,499,R,FALSE,735,1,0,1,1,0
ht1,500,R,TRUE,764,1,1,1,1,1
subID,trialNum,cntBalance,correct,rt,winner,p1conf,p2conf,p1rslt,p2rslt
pj7,1,R,FALSE,4819,2,1,0,0,1
pj7,2,R,TRUE,12117,2,0,0,0,1
pj7,3,R,FALSE,19395,1,1,0,0,1
pj7,4,R,TRUE,3787,2,0,1,1,1
pj7,5,R,FALSE,2384,1,1,1,1,1
pj7,6,R,TRUE,4912,1,1,1,0,1
pj7,7,R,TRUE,5916,2,0,1,1,1
pj7,8,R,FALSE,4747,1,1,1,0,1
pj7,9,R,TRUE,8863,2,1,1,0,1
pj7,10,R,TRUE,5852,1,1,1,1,1
pj7,11,R,TRUE,3995,1,1,1,1,1
pj7,12,R,TRUE,7633,2,0,1,1,1
pj7,13,R,TRUE,1916,2,1,0,1,1
pj7,14,R,FALSE,2317,2,1,0,0,0
pj7,15,R,TRUE,3118,2,0,1,1,1
pj7,16,R,FALSE,6973,2,1,0,1,0
pj7,17,R,TRUE,2768,1,0,0,1,0
pj7,18,R,FALSE,1421,1,0,0,1,0
pj7,19,R,FALSE,2130,2,0,1,1,0
pj7,20,R,TRUE,3101,1,0,0,1,1
pj7,21,R,TRUE,3420,2,1,0,0,1
pj7,22,R,FALSE,2367,2,1,1,0,0
pj7,23,R,TRUE,10577,2,0,0,1,1
pj7,24,R,TRUE,4491,2,0,1,1,0
pj7,25,R,TRUE,2095,1,1,1,1,1
pj7,26,R,TRUE,4126,2,0,1,1,1
pj7,27,R,TRUE,1599,2,0,0,1,1
pj7,28,R,TRUE,1584,1,0,1,1,1
pj7,29,R,TRUE,1392,1,1,1,1,1
pj7,30,R,TRUE,1728,2,1,0,1,1
pj7,31,R,TRUE,1872,2,0,1,1,1
pj7,32,R,FALSE,3838,2,0,0,1,1
pj7,33,R,FALSE,2512,2,1,0,0,1
pj7,34,R,TRUE,4224,1,0,1,1,1
pj7,35,R,FALSE,6786,1,1,1,0,1
pj7,36,R,TRUE,29739,1,1,1,0,1
pj7,37,R,TRUE,4512,2,0,0,0,1
pj7,38,R,TRUE,2572,2,1,0,0,1
pj7,39,R,TRUE,1262,1,1,1,1,1
pj7,40,R,TRUE,1709,2,1,0,1,1
pj7,41,R,FALSE,2625,1,1,1,1,0
pj7,42,R,TRUE,2079,2,1,0,1,0
pj7,43,R,TRUE,1584,2,0,1,1,1
pj7,44,R,TRUE,3600,2,0,1,0,1
pj7,45,R,TRUE,1633,2,1,1,1,1
pj7,46,R,TRUE,2559,2,0,1,1,1
pj7,47,R,FALSE,5824,2,0,0,1,0
pj7,48,R,TRUE,3327,2,1,0,1,1
pj7,49,R,TRUE,1711,1,0,1,1,1
pj7,50,R,TRUE,4145,1,1,1,1,1
pj7,51,R,TRUE,10239,2,1,1,0,1
pj7,52,R,TRUE,1260,2,1,1,1,1
pj7,53,R,TRUE,1826,1,1,1,1,1
pj7,54,R,TRUE,2139,2,0,0,1,1
pj7,55,R,FALSE,2800,1,0,0,0,1
pj7,56,R,FALSE,4463,1,1,1,1,0
pj7,57,R,TRUE,4736,1,0,1,0,1
pj7,58,R,FALSE,4179,1,0,0,1,0
pj7,59,R,TRUE,2203,1,0,0,0,0
pj7,60,R,TRUE,1792,2,1,1,1,1
pj7,61,R,TRUE,1777,1,1,0,1,1
pj7,62,R,FALSE,2127,2,0,0,0,1
pj7,63,R,TRUE,1871,1,0,1,1,1
pj7,64,R,TRUE,1134,1,0,0,1,1
pj7,65,R,TRUE,2428,2,1,1,1,1
pj7,66,R,TRUE,1280,2,1,1,1,1
pj7,67,R,FALSE,4768,2,0,0,0,1
pj7,68,R,FALSE,1423,2,0,0,0,1
pj7,69,R,FALSE,959,1,0,1,0,0
pj7,70,R,TRUE,3231,2,1,0,1,1
pj7,71,R,TRUE,7516,1,0,1,0,1
pj7,72,R,FALSE,1262,2,1,1,0,0
pj7,73,R,FALSE,5954,1,0,0,0,1
pj7,74,R,TRUE,1404,2,1,1,1,1
pj7,75,R,FALSE,2015,2,0,1,1,0
pj7,76,R,FALSE,3487,2,1,0,1,0
pj7,77,R,TRUE,1393,2,0,0,1,1
pj7,78,R,TRUE,1491,1,1,0,1,1
pj7,79,R,TRUE,3227,1,1,1,1,1
pj7,80,R,TRUE,2351,2,1,0,1,0
pj7,81,R,TRUE,1293,1,1,1,1,1
pj7,82,R,TRUE,2127,1,0,0,1,0
pj7,83,R,FALSE,2001,1,0,0,0,0
pj7,84,R,TRUE,5120,2,1,1,0,1
pj7,85,R,TRUE,2144,2,1,1,0,1
pj7,86,R,TRUE,1805,2,0,1,0,1
pj7,87,R,TRUE,1919,2,0,1,1,1
pj7,88,R,FALSE,5325,1,1,0,1,0
pj7,89,R,FALSE,2204,1,1,0,0,0
pj7,90,R,TRUE,2526,1,0,1,1,1
pj7,91,R,TRUE,1743,1,1,0,1,0
pj7,92,R,TRUE,1727,1,1,0,1,1
pj7,93,R,FALSE,15791,1,1,0,1,0
pj7,94,R,FALSE,4909,1,1,1,1,0
pj7,95,R,FALSE,4930,1,1,0,0,1
pj7,96,R,TRUE,4287,2,0,1,0,1
pj7,97,R,TRUE,4394,1,1,1,1,0
pj7,98,R,TRUE,3934,1,0,1,1,0
pj7,99,R,FALSE,5199,2,0,0,1,0
pj7,100,R,FALSE,4974,1,0,1,0,1
brk,brk,brk,brk,brk,brk,brk,brk,brk,brk
pj7,101,R,TRUE,1983,1,0,0,1,0
pj7,102,R,TRUE,1388,2,1,1,0,1
pj7,103,R,FALSE,2048,1,1,1,0,1
pj7,104,R,TRUE,1104,2,1,1,1,1
pj7,105,R,FALSE,2432,1,1,1,0,1
pj7,106,R,TRUE,1440,1,1,1,1,1
pj7,107,R,TRUE,5121,1,0,1,0,1
pj7,108,R,FALSE,1715,2,1,0,0,1
pj7,109,R,FALSE,2075,1,1,1,1,0
pj7,110,R,TRUE,2048,2,0,0,1,0
pj7,111,R,FALSE,3087,1,0,1,1,0
pj7,112,R,FALSE,2417,2,0,1,0,0
pj7,113,R,TRUE,2544,2,1,1,0,1
pj7,114,R,TRUE,2447,2,1,1,0,1
pj7,115,R,FALSE,9200,2,0,0,1,0
pj7,116,R,TRUE,1729,2,0,0,1,0
pj7,117,R,FALSE,2883,1,1,1,1,0
pj7,118,R,TRUE,1452,2,0,1,1,1
pj7,119,R,TRUE,1151,1,0,0,1,1
pj7,120,R,FALSE,1425,2,1,0,0,0
pj7,121,R,TRUE,2242,2,1,1,1,1
pj7,122,R,FALSE,4539,1,1,1,0,1
pj7,123,R,FALSE,1569,2,0,0,0,0
pj7,124,R,FALSE,2867,2,1,0,0,0
pj7,125,R,FALSE,1642,2,0,0,0,0
pj7,126,R,FALSE,4401,1,0,0,1,1
pj7,127,R,FALSE,1794,2,1,0,0,1
pj7,128,R,TRUE,1201,2,0,0,1,1
pj7,129,R,TRUE,2175,2,0,0,1,0
pj7,130,R,FALSE,2434,1,1,0,1,0
pj7,131,R,TRUE,1434,1,1,1,1,1
pj7,132,R,TRUE,1824,2,1,0,1,0
pj7,133,R,TRUE,1360,2,1,1,1,1
pj7,134,R,FALSE,1806,1,0,0,1,0
pj7,135,R,FALSE,1551,1,0,0,0,0
pj7,136,R,TRUE,1395,2,0,1,1,1
pj7,137,R,TRUE,1322,1,0,1,1,1
pj7,138,R,FALSE,1133,2,1,0,0,0
pj7,139,R,TRUE,1042,2,0,0,0,0
pj7,140,R,TRUE,2203,2,1,1,1,1
pj7,141,R,TRUE,2319,2,0,0,1,0
pj7,142,R,TRUE,1968,2,0,1,1,1
pj7,143,R,TRUE,2783,1,1,1,0,1
pj7,144,R,FALSE,1757,1,1,1,0,1
pj7,145,R,TRUE,1636,2,0,1,1,1
pj7,146,R,TRUE,2332,2,0,1,1,1
pj7,147,R,FALSE,1120,1,1,0,0,1
pj7,148,R,FALSE,2210,2,1,1,0,1
pj7,149,R,TRUE,8141,2,0,0,1,1
pj7,150,R,TRUE,1645,1,1,1,1,1
pj7,151,R,TRUE,7968,1,0,0,1,1
pj7,152,R,TRUE,5728,2,1,1,1,1
pj7,153,R,TRUE,3600,1,1,0,1,1
pj7,154,R,TRUE,2255,1,0,0,1,1
pj7,155,R,TRUE,1443,2,1,0,1,1
pj7,156,R,TRUE,3212,1,0,1,0,1
pj7,157,R,TRUE,1312,1,1,1,1,1
pj7,158,R,FALSE,1089,1,0,0,0,0
pj7,159,R,TRUE,1443,2,1,1,1,1
pj7,160,R,TRUE,890,1,1,1,1,1
pj7,161,R,FALSE,751,2,0,0,0,0
pj7,162,R,FALSE,1216,1,1,0,1,0
pj7,163,R,TRUE,1425,1,1,0,1,0
pj7,164,R,TRUE,2155,2,1,0,1,0
pj7,165,R,FALSE,1200,1,1,0,0,1
pj7,166,R,TRUE,1135,2,1,1,1,1
pj7,167,R,TRUE,3199,1,1,1,1,0
pj7,168,R,TRUE,1312,2,1,1,1,1
pj7,169,R,TRUE,1938,1,0,1,0,1
pj7,170,R,TRUE,2009,2,0,0,1,1
pj7,171,R,TRUE,1876,1,0,0,0,0
pj7,172,R,TRUE,4154,1,1,0,1,1
pj7,173,R,TRUE,3602,1,1,0,1,0
pj7,174,R,FALSE,1099,1,0,1,1,0
pj7,175,R,TRUE,1135,1,1,1,1,1
pj7,176,R,TRUE,1633,1,0,1,1,1
pj7,177,R,TRUE,1452,1,1,1,1,1
pj7,178,R,TRUE,1649,2,0,1,1,1
pj7,179,R,TRUE,1550,2,1,0,1,1
pj7,180,R,FALSE,4239,2,0,1,1,0
pj7,181,R,TRUE,1682,1,0,0,1,0
pj7,182,R,FALSE,2123,1,1,1,0,1
pj7,183,R,TRUE,880,1,1,0,1,1
pj7,184,R,TRUE,1168,2,1,0,1,1
pj7,185,R,FALSE,1264,2,0,1,1,0
pj7,186,R,TRUE,1885,2,0,1,1,1
pj7,187,R,TRUE,1392,1,1,0,1,1
pj7,188,R,TRUE,960,1,1,0,1,1
pj7,189,R,TRUE,1649,2,0,1,0,1
pj7,190,R,TRUE,1307,2,1,0,1,0
pj7,191,R,FALSE,1119,2,1,1,0,0
pj7,192,R,TRUE,2351,2,0,1,1,1
pj7,193,R,FALSE,1105,2,1,1,0,0
pj7,194,R,TRUE,1968,1,0,0,1,1
pj7,195,R,TRUE,1649,2,1,1,1,0
pj7,196,R,TRUE,943,1,0,0,1,1
pj7,197,R,FALSE,1260,2,0,0,1,0
pj7,198,R,TRUE,1182,1,1,1,1,1
pj7,199,R,FALSE,1149,2,1,1,0,1
pj7,200,R,TRUE,2334,2,1,0,1,1
brk,brk,brk,brk,brk,brk,brk,brk,brk,brk
pj7,201,R,FALSE,2069,1,1,1,0,0
pj7,202,R,TRUE,2642,1,1,0,1,1
pj7,203,R,TRUE,1901,2,1,1,0,1
pj7,204,R,TRUE,1217,2,0,1,0,1
pj7,205,R,TRUE,1025,1,1,0,1,1
pj7,206,R,TRUE,987,1,1,0,1,1
pj7,207,R,TRUE,1391,2,1,1,1,1
pj7,208,R,TRUE,739,1,1,0,1,1
pj7,209,R,TRUE,1578,2,0,0,0,1
pj7,210,R,TRUE,1489,2,1,0,1,1
pj7,211,R,TRUE,3405,1,0,0,1,1
pj7,212,R,TRUE,1856,2,1,0,1,1
pj7,213,R,TRUE,2462,1,0,1,0,1
pj7,214,R,TRUE,1440,2,1,1,1,1
pj7,215,R,FALSE,1793,1,1,1,0,1
pj7,216,R,TRUE,1339,2,1,1,1,1
pj7,217,R,TRUE,1549,2,0,1,0,1
pj7,218,R,TRUE,2335,1,0,1,0,1
pj7,219,R,TRUE,3711,1,1,1,1,0
pj7,220,R,FALSE,1356,1,1,0,0,0
pj7,221,R,TRUE,781,1,0,0,1,1
pj7,222,R,TRUE,1469,2,1,1,1,0
pj7,223,R,TRUE,1361,2,1,0,1,1
pj7,224,R,FALSE,4223,1,0,1,0,1
pj7,225,R,FALSE,1152,2,0,0,0,1
pj7,226,R,TRUE,2963,2,0,0,1,1
pj7,227,R,TRUE,1002,2,1,0,1,1
pj7,228,R,TRUE,865,1,0,0,1,1
pj7,229,R,TRUE,1231,1,1,1,1,1
pj7,230,R,FALSE,1420,1,1,1,0,1
pj7,231,R,TRUE,641,1,1,0,1,1
pj7,232,R,TRUE,897,2,0,1,1,1
pj7,233,R,TRUE,1568,2,1,1,0,1
pj7,234,R,FALSE,2177,1,1,0,0,1
pj7,235,R,TRUE,1712,1,0,1,1,1
pj7,236,R,TRUE,1152,2,1,1,1,1
pj7,237,R,TRUE,1104,1,0,0,1,1
pj7,238,R,TRUE,1777,2,1,1,0,1
pj7,239,R,TRUE,941,2,1,0,1,1
pj7,240,R,FALSE,1135,1,1,0,0,0
pj7,241,R,TRUE,1200,1,1,0,1,1
pj7,242,R,TRUE,960,2,1,1,1,1
pj7,243,R,TRUE,800,1,0,1,1,1
pj7,244,R,TRUE,1152,2,1,0,1,1
pj7,245,R,FALSE,689,1,0,1,0,0
pj7,246,R,TRUE,720,1,0,1,1,1
pj7,247,R,FALSE,783,1,0,0,0,0
pj7,248,R,TRUE,704,1,1,0,1,1
pj7,249,R,TRUE,1025,2,0,1,0,1
pj7,250,R,TRUE,606,2,1,0,1,0
pj7,251,R,FALSE,1329,2,1,0,0,1
pj7,252,R,TRUE,976,2,1,0,1,1
pj7,253,R,FALSE,928,1,0,1,0,0
pj7,254,R,FALSE,705,2,0,1,0,1
pj7,255,R,TRUE,689,1,0,1,1,1
pj7,256,R,FALSE,2544,1,1,1,1,0
pj7,257,R,FALSE,961,1,1,1,1,0
pj7,258,R,TRUE,593,2,0,1,1,1
pj7,259,R,TRUE,964,1,0,0,1,1
pj7,260,R,TRUE,732,2,0,1,1,1
pj7,261,R,TRUE,1710,2,0,1,0,1
pj7,262,R,TRUE,1744,2,0,0,1,1
pj7,263,R,FALSE,1152,1,0,1,0,0
pj7,264,R,TRUE,736,1,0,1,1,1
pj7,265,R,TRUE,1440,2,1,0,1,0
pj7,266,R,TRUE,800,1,1,1,1,1
pj7,267,R,TRUE,1442,2,1,0,1,1
pj7,268,R,TRUE,716,2,1,1,1,1
pj7,269,R,FALSE,638,1,1,0,0,0
pj7,270,R,TRUE,641,2,1,0,1,0
pj7,271,R,TRUE,688,2,1,1,1,1
pj7,272,R,TRUE,1021,1,1,0,1,1
pj7,273,R,FALSE,4589,1,1,1,0,1
pj7,274,R,FALSE,1633,1,0,0,1,0
pj7,275,R,TRUE,1470,2,0,0,0,1
pj7,276,R,TRUE,928,1,1,1,1,1
pj7,277,R,FALSE,1150,2,1,0,0,1
pj7,278,R,TRUE,2515,2,0,0,1,0
pj7,279,R,TRUE,1116,1,0,0,1,1
pj7,280,R,TRUE,1326,1,0,0,1,0
pj7,281,R,TRUE,929,1,1,0,1,0
pj7,282,R,TRUE,1457,1,0,0,1,1
pj7,283,R,TRUE,2095,1,0,1,0,1
pj7,284,R,TRUE,1283,2,1,0,1,1
pj7,285,R,FALSE,1243,1,0,0,0,1
pj7,286,R,TRUE,3058,1,1,0,1,1
pj7,287,R,TRUE,1499,2,1,1,1,0
pj7,288,R,TRUE,749,2,1,1,1,1
pj7,289,R,FALSE,958,2,0,0,0,1
pj7,290,R,TRUE,977,1,0,0,1,1
pj7,291,R,TRUE,2369,2,0,0,1,1
pj7,292,R,TRUE,2270,2,1,0,1,1
pj7,293,R,TRUE,1793,2,0,0,1,0
pj7,294,R,TRUE,913,2,1,1,1,1
pj7,295,R,TRUE,1072,2,0,0,1,1
pj7,296,R,TRUE,1615,2,0,1,1,1
pj7,297,R,FALSE,1600,2,1,1,1,0
pj7,298,R,TRUE,303,2,0,1,1,1
pj7,299,R,FALSE,848,1,1,0,0,0
pj7,300,R,FALSE,1378,1,1,1,0,1
brk,brk,brk,brk,brk,brk,brk,brk,brk,brk
pj7,301,R,TRUE,3601,1,1,1,1,1
pj7,302,R,TRUE,668,1,1,0,1,1
pj7,303,R,FALSE,849,1,1,1,0,0
pj7,304,R,FALSE,927,1,1,0,0,0
pj7,305,R,TRUE,1906,2,1,1,1,0
pj7,306,R,TRUE,1626,1,0,0,1,0
pj7,307,R,TRUE,832,1,0,0,1,1
pj7,308,R,TRUE,846,2,1,0,1,1
pj7,309,R,TRUE,624,1,0,0,1,1
pj7,310,R,FALSE,721,1,1,1,0,1
pj7,311,R,TRUE,507,1,1,0,1,1
pj7,312,R,TRUE,767,2,1,1,1,0
pj7,313,R,FALSE,1008,1,0,0,0,0
pj7,314,R,TRUE,1166,1,1,1,1,1
pj7,315,R,FALSE,894,1,1,1,0,1
pj7,316,R,TRUE,784,2,1,1,1,1
pj7,317,R,TRUE,1900,2,1,0,1,0
pj7,318,R,TRUE,1068,2,0,0,1,1
pj7,319,R,TRUE,930,1,1,0,1,1
pj7,320,R,FALSE,1802,2,1,0,0,1
pj7,321,R,TRUE,1298,1,0,1,1,1
pj7,322,R,TRUE,2092,2,1,0,1,0
pj7,323,R,TRUE,1102,1,1,1,1,1
pj7,324,R,TRUE,1775,1,0,1,0,1
pj7,325,R,TRUE,1682,1,0,1,0,1
pj7,326,R,TRUE,1049,2,1,1,1,1
pj7,327,R,TRUE,671,2,1,0,1,1
pj7,328,R,TRUE,2496,2,1,1,0,1
pj7,329,R,TRUE,1516,2,0,1,0,1
pj7,330,R,TRUE,1774,2,0,1,1,1
pj7,331,R,TRUE,702,2,0,1,1,1
pj7,332,R,FALSE,1457,2,1,1,0,0
pj7,333,R,FALSE,1149,2,1,1,0,0
pj7,334,R,TRUE,3119,1,0,0,1,1
pj7,335,R,TRUE,1032,2,1,1,1,1
pj7,336,R,FALSE,1553,1,0,0,1,1
pj7,337,R,TRUE,913,2,0,1,1,1
pj7,338,R,TRUE,799,1,0,1,1,1
pj7,339,R,TRUE,1248,1,0,0,1,1
pj7,340,R,TRUE,1516,1,1,0,1,1
pj7,341,R,TRUE,876,2,1,0,1,1
pj7,342,R,TRUE,1841,2,1,0,1,0
pj7,343,R,TRUE,749,2,1,1,1,1
pj7,344,R,TRUE,1295,2,0,0,1,1
pj7,345,R,TRUE,1276,2,0,0,1,1
pj7,346,R,TRUE,2095,2,1,0,1,0
pj7,347,R,TRUE,1248,2,1,0,1,1
pj7,348,R,TRUE,3501,1,1,0,1,0
pj7,349,R,TRUE,1436,1,1,0,1,0
pj7,350,R,TRUE,1521,2,1,0,1,0
pj7,351,R,TRUE,577,1,1,1,1,1
pj7,352,R,TRUE,603,2,1,1,1,1
pj7,353,R,FALSE,562,1,0,1,0,1
pj7,354,R,TRUE,604,2,1,1,1,1
pj7,355,R,TRUE,594,1,1,1,1,0
pj7,356,R,TRUE,1133,2,1,0,1,1
pj7,357,R,TRUE,1259,2,0,0,1,1
pj7,358,R,TRUE,976,1,0,0,1,1
pj7,359,R,TRUE,3807,2,1,0,1,1
pj7,360,R,TRUE,764,1,0,0,1,1
pj7,361,R,TRUE,780,2,0,1,1,1
pj7,362,R,FALSE,526,1,1,0,0,0
pj7,363,R,FALSE,607,2,1,1,0,1
pj7,364,R,TRUE,959,1,0,1,1,1
pj7,365,R,FALSE,2175,2,0,0,1,0
pj7,366,R,TRUE,1392,1,0,0,1,0
pj7,367,R,TRUE,1324,1,0,1,0,1
pj7,368,R,TRUE,2478,2,0,0,1,0
pj7,369,R,TRUE,1470,2,1,1,1,1
pj7,370,R,TRUE,1759,1,1,1,1,1
pj7,371,R,FALSE,2061,2,0,1,1,0
pj7,372,R,TRUE,1808,2,0,0,1,1
pj7,373,R,TRUE,1583,1,0,1,0,1
pj7,374,R,TRUE,5149,2,0,1,1,1
pj7,375,R,FALSE,672,2,1,1,0,1
pj7,376,R,TRUE,1710,2,1,0,1,1
pj7,377,R,TRUE,1648,2,1,0,1,0
pj7,378,R,TRUE,929,1,0,0,1,1
pj7,379,R,TRUE,2400,2,1,1,1,0
pj7,380,R,TRUE,1674,2,0,0,1,1
pj7,381,R,TRUE,1390,1,0,0,1,1
pj7,382,R,TRUE,1469,2,1,0,1,0
pj7,383,R,FALSE,1183,1,1,0,0,0
pj7,384,R,TRUE,1682,1,0,0,1,1
pj7,385,R,TRUE,859,1,0,0,1,1
pj7,386,R,TRUE,1408,2,1,1,1,0
pj7,387,R,TRUE,2255,2,0,1,1,1
pj7,388,R,FALSE,10528,1,1,1,0,1
pj7,389,R,TRUE,1697,2,1,0,1,0
pj7,390,R,TRUE,1917,1,1,1,1,0
pj7,391,R,FALSE,1677,1,0,0,0,1
pj7,392,R,TRUE,1343,1,0,1,1,1
pj7,393,R,TRUE,1425,2,1,0,1,0
pj7,394,R,TRUE,1280,2,0,1,1,1
pj7,395,R,TRUE,1120,1,1,1,1,1
pj7,396,R,TRUE,1024,2,1,0,1,1
pj7,397,R,TRUE,843,2,0,1,1,1
pj7,398,R,TRUE,707,2,1,1,1,1
pj7,399,R,TRUE,798,2,1,1,1,1
pj7,400,R,TRUE,1771,1,0,0,1,0
brk,brk,brk,brk,brk,brk,brk,brk,brk,brk
pj7,401,R,FALSE,9160,1,1,1,0,1
pj7,402,R,TRUE,1166,2,1,1,0,1
pj7,403,R,TRUE,1277,2,1,0,1,1
pj7,404,R,TRUE,577,2,1,1,1,1
pj7,405,R,TRUE,943,2,0,1,1,1
pj7,406,R,TRUE,1039,2,0,0,1,1
pj7,407,R,TRUE,722,2,0,0,1,0
pj7,408,R,FALSE,970,2,0,1,0,0
pj7,409,R,TRUE,1405,2,1,1,0,1
pj7,410,R,FALSE,1808,2,0,1,1,0
pj7,411,R,FALSE,1133,1,1,0,0,0
pj7,412,R,TRUE,560,2,1,1,1,0
pj7,413,R,FALSE,976,2,0,0,0,0
pj7,414,R,FALSE,735,2,0,0,0,0
pj7,415,R,TRUE,995,2,0,1,1,1
pj7,416,R,TRUE,732,1,0,0,1,1
pj7,417,R,TRUE,635,1,1,0,1,1
pj7,418,R,TRUE,816,2,1,1,1,1
pj7,419,R,TRUE,734,1,0,1,1,1
pj7,420,R,TRUE,1313,2,1,1,0,1
pj7,421,R,TRUE,1182,1,1,1,1,1
pj7,422,R,TRUE,637,2,0,1,1,1
pj7,423,R,FALSE,1378,1,1,1,1,0
pj7,424,R,FALSE,1994,2,0,0,0,0
pj7,425,R,TRUE,1490,2,1,0,1,0
pj7,426,R,FALSE,382,2,1,1,0,1
pj7,427,R,TRUE,1260,1,1,1,1,1
pj7,428,R,TRUE,741,2,1,1,1,1
pj7,429,R,TRUE,553,2,0,1,1,1
pj7,430,R,TRUE,1071,1,1,0,1,0
pj7,431,R,TRUE,1118,2,1,0,1,0
pj7,432,R,TRUE,620,2,1,0,1,0
pj7,433,R,TRUE,783,1,0,1,1,1
pj7,434,R,TRUE,816,1,1,1,1,1
pj7,435,R,TRUE,833,2,0,0,1,1
pj7,436,R,FALSE,832,1,0,0,0,0
pj7,437,R,FALSE,1933,1,1,1,1,0
pj7,438,R,TRUE,1227,2,0,0,1,1
pj7,439,R,TRUE,739,2,0,1,1,1
pj7,440,R,TRUE,3323,2,1,0,1,0
pj7,441,R,FALSE,1362,1,1,0,0,1
pj7,442,R,TRUE,458,2,0,0,1,1
pj7,443,R,TRUE,735,1,0,0,1,1
pj7,444,R,FALSE,1228,2,0,0,0,1
pj7,445,R,TRUE,706,2,1,0,1,1
pj7,446,R,FALSE,618,2,1,0,0,1
pj7,447,R,TRUE,1951,1,0,1,0,1
pj7,448,R,TRUE,1856,2,0,1,1,1
pj7,449,R,TRUE,1646,1,1,0,1,0
pj7,450,R,FALSE,1823,1,0,1,0,0
pj7,451,R,TRUE,8783,1,1,0,1,1
pj7,452,R,FALSE,1325,1,1,1,0,1
pj7,453,R,FALSE,2062,1,1,1,0,0
pj7,454,R,TRUE,847,2,0,1,1,1
pj7,455,R,TRUE,830,1,0,1,1,1
pj7,456,R,TRUE,750,1,1,1,1,1
pj7,457,R,TRUE,639,1,0,0,1,1
pj7,458,R,TRUE,5325,2,1,0,1,1
pj7,459,R,FALSE,668,1,0,0,0,0
pj7,460,R,TRUE,1166,2,1,1,0,1
pj7,461,R,TRUE,1423,2,0,1,1,0
pj7,462,R,FALSE,685,2,0,1,0,0
pj7,463,R,TRUE,20929,1,0,1,1,1
pj7,464,R,TRUE,3579,2,1,1,0,1
pj7,465,R,FALSE,4337,2,1,0,0,0
