"success","trial_type","trial_index","time_elapsed","internal_node_id","subject","condition","timeout","failed_images","failed_audio","failed_video","view_history","rt","response_type","key_press","response","avg_frame_time","center_x","center_y","outcome","p1conf","p2conf","p1rslt","p2rslt","correct","stimulus","question_order"
"true","fullscreen","0","2290","0.0-0.0-0.0","aya","[""L""]","","","","","","","","","","","","","","","","","","","",""
"true","preload","1","2296","0.0-0.0-1.0","aya","[""L""]","false","[]","[]","[]","","","","","","","","","","","","","","","",""
"","instructions","2","152575","0.0-1.0","aya","[""L""]","","","","","[{""page_index"":0,""viewing_time"":119950},{""page_index"":1,""viewing_time"":17024},{""page_index"":2,""viewing_time"":13304}]","150279","","","","","","","","","","","","","",""
"","psychophysics","3","155596","0.0-2.0-0.0","aya","[""L""]","","","","","","2311","key","m","m","16.687458563536033","798","448.5","2","0","1","0","1","true","",""
"","psychophysics","4","156609","0.0-2.0-1.0","aya","[""L""]","","","","","","null","key","null","null","16.686966666666557","798","448.5","2","0","1","0","1","","",""
"","psychophysics","5","157620","0.0-2.0-2.0-0.0","aya","[""L""]","","","","","","null","key","null","null","16.68571186440669","798","448.5","2","0","1","0","1","","",""
"","psychophysics","6","160460","0.0-2.0-0.1","aya","[""L""]","","","","","","2132","key","m","m","16.68617159763324","798","448.5","1","1","0","0","1","false","",""
"","psychophysics","7","161468","0.0-2.0-1.1","aya","[""L""]","","","","","","null","key","null","null","16.687383333333614","798","448.5","1","1","0","0","1","","",""
"","psychophysics","8","162482","0.0-2.0-3.1-0.1","aya","[""L""]","","","","","","null","key","null","null","16.686800000000222","798","448.5","1","1","0","0","1","","",""
"","psychophysics","9","164763","0.0-2.0-0.2","aya","[""L""]","","","","","","1577","key","m","m","16.685814814814755","798","448.5","1","1","1","0","0","false","",""
"","psychophysics","10","165772","0.0-2.0-1.2","aya","[""L""]","","","","","","null","key","null","null","16.68675000000027","798","448.5","1","1","1","0","0","","",""
"","psychophysics","11","166782","0.0-2.0-3.2-0.2","aya","[""L""]","","","","","","null","key","null","null","16.686372881356164","798","448.5","1","1","1","0","0","","",""
"","psychophysics","12","168979","0.0-2.0-0.3","aya","[""L""]","","","","","","1491","key","z","z","16.68617557251905","798","448.5","1","1","0","1","1","true","",""
"","psychophysics","13","169987","0.0-2.0-1.3","aya","[""L""]","","","","","","null","key","null","null","16.68676271186441","798","448.5","1","1","0","1","1","","",""
"","psychophysics","14","170997","0.0-2.0-2.3-0.3","aya","[""L""]","","","","","","null","key","null","null","16.685983333333084","798","448.5","1","1","0","1","1","","",""
"","psychophysics","15","174276","0.0-2.0-0.4","aya","[""L""]","","","","","","2575","key","z","z","16.686071794871868","798","448.5","2","1","0","0","1","false","",""
"","psychophysics","16","175283","0.0-2.0-1.4","aya","[""L""]","","","","","","null","key","null","null","16.68654999999999","798","448.5","2","1","0","0","1","","",""
"","psychophysics","17","176292","0.0-2.0-3.4-0.4","aya","[""L""]","","","","","","null","key","null","null","16.686644067796404","798","448.5","2","1","0","0","1","","",""
"","psychophysics","18","179259","0.0-2.0-0.5","aya","[""L""]","","","","","","2260","key","m","m","16.68632203389826","798","448.5","2","1","1","1","1","true","",""
"","psychophysics","19","180269","0.0-2.0-1.5","aya","[""L""]","","","","","","null","key","null","null","16.68645000000009","798","448.5","2","1","1","1","1","","",""
"","psychophysics","20","181279","0.0-2.0-2.5-0.5","aya","[""L""]","","","","","","null","key","null","null","16.6854237288136","798","448.5","2","1","1","1","1","","",""
"","psychophysics","21","184309","0.0-2.0-0.6","aya","[""L""]","","","","","","2326","key","m","m","16.686143646408734","798","448.5","2","0","0","1","1","true","",""
"","psychophysics","22","185316","0.0-2.0-1.6","aya","[""L""]","","","","","","null","key","null","null","16.68569491525433","798","448.5","2","0","0","1","1","","",""
"","psychophysics","23","186327","0.0-2.0-2.6-0.6","aya","[""L""]","","","","","","null","key","null","null","16.686033333333036","798","448.5","2","0","0","1","1","","",""
"","psychophysics","24","188156","0.0-2.0-0.7","aya","[""L""]","","","","","","1125","key","z","z","16.68627777777793","798","448.5","1","1","1","1","1","true","",""
"","psychophysics","25","189165","0.0-2.0-1.7","aya","[""L""]","","","","","","null","key","null","null","16.686349999999706","798","448.5","1","1","1","1","1","","",""
"","psychophysics","26","190175","0.0-2.0-2.7-0.7","aya","[""L""]","","","","","","null","key","null","null","16.6862372881358","798","448.5","1","1","1","1","1","","",""
"","psychophysics","27","192604","0.0-2.0-0.8","aya","[""L""]","","","","","","1721","key","z","z","16.68604137931031","798","448.5","2","1","1","1","0","false","",""
"","psychophysics","28","193612","0.0-2.0-1.8","aya","[""L""]","","","","","","null","key","null","null","16.686728813559196","798","448.5","2","1","1","1","0","","",""
"","psychophysics","29","194622","0.0-2.0-3.8-0.8","aya","[""L""]","","","","","","null","key","null","null","16.6864333333336","798","448.5","2","1","1","1","0","","",""
"","psychophysics","30","196924","0.0-2.0-0.9","aya","[""L""]","","","","","","1598","key","z","z","16.686240875912297","798","448.5","1","1","0","1","0","true","",""
"","psychophysics","31","197931","0.0-2.0-1.9","aya","[""L""]","","","","","","null","key","null","null","16.685728813559546","798","448.5","1","1","0","1","0","","",""
"","psychophysics","32","198941","0.0-2.0-2.9-0.9","aya","[""L""]","","","","","","null","key","null","null","16.686816666666708","798","448.5","1","1","0","1","0","","",""
"","psychophysics","33","200694","0.0-2.0-0.10","aya","[""L""]","","","","","","1050","key","z","z","16.68589423076908","798","448.5","1","1","1","1","1","true","",""
"","psychophysics","34","201701","0.0-2.0-1.10","aya","[""L""]","","","","","","null","key","null","null","16.68584745762706","798","448.5","1","1","1","1","1","","",""
"","psychophysics","35","202712","0.0-2.0-2.10-0.10","aya","[""L""]","","","","","","null","key","null","null","16.686733333333297","798","448.5","1","1","1","1","1","","",""
"","psychophysics","36","204883","0.0-2.0-0.11","aya","[""L""]","","","","","","1467","key","m","m","16.686620155038707","798","448.5","2","0","1","1","1","true","",""
"","psychophysics","37","205890","0.0-2.0-1.11","aya","[""L""]","","","","","","null","key","null","null","16.685779661017122","798","448.5","2","0","1","1","1","","",""
"","psychophysics","38","206900","0.0-2.0-2.11-0.11","aya","[""L""]","","","","","","null","key","null","null","16.686299999999754","798","448.5","2","0","1","1","1","","",""
"","psychophysics","39","208756","0.0-2.0-0.12","aya","[""L""]","","","","","","1152","key","z","z","16.685763636363713","798","448.5","1","0","0","0","1","true","",""
"","psychophysics","40","209763","0.0-2.0-1.12","aya","[""L""]","","","","","","null","key","null","null","16.685542372881603","798","448.5","1","0","0","0","1","","",""
"","psychophysics","41","210772","0.0-2.0-2.12-0.12","aya","[""L""]","","","","","","null","key","null","null","16.68671666666681","798","448.5","1","0","0","0","1","","",""
"","psychophysics","42","212395","0.0-2.0-0.13","aya","[""L""]","","","","","","919","key","z","z","16.686187500000113","798","448.5","1","1","1","1","1","true","",""
"","psychophysics","43","213402","0.0-2.0-1.13","aya","[""L""]","","","","","","null","key","null","null","16.686491525423676","798","448.5","1","1","1","1","1","","",""
"","psychophysics","44","214412","0.0-2.0-2.13-0.13","aya","[""L""]","","","","","","null","key","null","null","16.68646666666658","798","448.5","1","1","1","1","1","","",""
"","psychophysics","45","216412","0.0-2.0-0.14","aya","[""L""]","","","","","","1297","key","m","m","16.685865546218384","798","448.5","2","0","0","1","1","true","",""
"","psychophysics","46","217419","0.0-2.0-1.14","aya","[""L""]","","","","","","null","key","null","null","16.686067796610217","798","448.5","2","0","0","1","1","","",""
"","psychophysics","47","218430","0.0-2.0-2.14-0.14","aya","[""L""]","","","","","","null","key","null","null","16.68690000000012","798","448.5","2","0","0","1","1","","",""
"","psychophysics","48","220140","0.0-2.0-0.15","aya","[""L""]","","","","","","1005","key","z","z","16.686584158415855","798","448.5","1","1","1","1","1","true","",""
"","psychophysics","49","221150","0.0-2.0-1.15","aya","[""L""]","","","","","","null","key","null","null","16.68690000000012","798","448.5","1","1","1","1","1","","",""
"","psychophysics","50","222159","0.0-2.0-2.15-0.15","aya","[""L""]","","","","","","null","key","null","null","16.685813559322337","798","448.5","1","1","1","1","1","","",""
"","psychophysics","51","223675","0.0-2.0-0.16","aya","[""L""]","","","","","","813","key","z","z","16.68631111111091","798","448.5","1","1","1","1","1","true","",""
"","psychophysics","52","224682","0.0-2.0-1.16","aya","[""L""]","","","","","","null","key","null","null","16.686881355931924","798","448.5","1","1","1","1","1","","",""
"","psychophysics","53","225692","0.0-2.0-2.16-0.16","aya","[""L""]","","","","","","null","key","null","null","16.68669999999984","798","448.5","1","1","1","1","1","","",""
"","psychophysics","54","227267","0.0-2.0-0.17","aya","[""L""]","","","","","","871","key","m","m","16.68639784946259","798","448.5","2","0","1","1","1","true","",""
"","psychophysics","55","228276","0.0-2.0-1.17","aya","[""L""]","","","","","","null","key","null","null","16.68716666666684","798","448.5","2","0","1","1","1","","",""
"","psychophysics","56","229285","0.0-2.0-2.17-0.17","aya","[""L""]","","","","","","null","key","null","null","16.685864406779913","798","448.5","2","0","1","1","1","","",""
"","psychophysics","57","230868","0.0-2.0-0.18","aya","[""L""]","","","","","","878","key","z","z","16.686478723404356","798","448.5","1","0","0","0","1","true","",""
"","psychophysics","58","231876","0.0-2.0-1.18","aya","[""L""]","","","","","","null","key","null","null","16.686779661017265","798","448.5","1","0","0","0","1","","",""
"","psychophysics","59","232886","0.0-2.0-2.18-0.18","aya","[""L""]","","","","","","null","key","null","null","16.6854666666671","798","448.5","1","0","0","0","1","","",""
"","psychophysics","60","234596","0.0-2.0-0.19","aya","[""L""]","","","","","","1006","key","m","m","16.686495049504764","798","448.5","2","1","0","1","1","true","",""
"","psychophysics","61","235604","0.0-2.0-1.19","aya","[""L""]","","","","","","null","key","null","null","16.686650000000373","798","448.5","2","1","0","1","1","","",""
"","psychophysics","62","236613","0.0-2.0-2.19-0.19","aya","[""L""]","","","","","","null","key","null","null","16.68616949152537","798","448.5","2","1","0","1","1","","",""
"","psychophysics","63","238379","0.0-2.0-0.20","aya","[""L""]","","","","","","1060","key","m","m","16.686323809523657","798","448.5","1","0","0","0","1","false","",""
"","psychophysics","64","239388","0.0-2.0-1.20","aya","[""L""]","","","","","","null","key","null","null","16.68693333333358","798","448.5","1","0","0","0","1","","",""
"","psychophysics","65","240396","0.0-2.0-3.20-0.20","aya","[""L""]","","","","","","null","key","null","null","16.685661016949116","798","448.5","1","0","0","0","1","","",""
"","psychophysics","66","242115","0.0-2.0-0.21","aya","[""L""]","","","","","","1016","key","z","z","16.68650000000015","798","448.5","1","1","1","1","1","true","",""
"","psychophysics","67","243125","0.0-2.0-1.21","aya","[""L""]","","","","","","null","key","null","null","16.687216666666306","798","448.5","1","1","1","1","1","","",""
"","psychophysics","68","244133","0.0-2.0-2.21-0.21","aya","[""L""]","","","","","","null","key","null","null","16.685830508474204","798","448.5","1","1","1","1","1","","",""
"","psychophysics","69","245629","0.0-2.0-0.22","aya","[""L""]","","","","","","792","key","z","z","16.686359550561914","798","448.5","1","1","1","1","1","true","",""
"","psychophysics","70","246636","0.0-2.0-1.22","aya","[""L""]","","","","","","null","key","null","null","16.686406779660885","798","448.5","1","1","1","1","1","","",""
"","psychophysics","71","247647","0.0-2.0-2.22-0.22","aya","[""L""]","","","","","","null","key","null","null","16.68638333333365","798","448.5","1","1","1","1","1","","",""
"","psychophysics","72","249139","0.0-2.0-0.23","aya","[""L""]","","","","","","788","key","z","z","16.686659090909167","798","448.5","2","1","1","1","0","false","",""
"","psychophysics","73","250150","0.0-2.0-1.23","aya","[""L""]","","","","","","null","key","null","null","16.686883333333146","798","448.5","2","1","1","1","0","","",""
"","psychophysics","74","251159","0.0-2.0-3.23-0.23","aya","[""L""]","","","","","","null","key","null","null","16.68591525423749","798","448.5","2","1","1","1","0","","",""
"","psychophysics","75","253038","0.0-2.0-0.24","aya","[""L""]","","","","","","1176","key","z","z","16.686124999999915","798","448.5","1","1","1","1","1","true","",""
"","psychophysics","76","254045","0.0-2.0-1.24","aya","[""L""]","","","","","","null","key","null","null","16.685915254236996","798","448.5","1","1","1","1","1","","",""
"","psychophysics","77","255056","0.0-2.0-2.24-0.24","aya","[""L""]","","","","","","null","key","null","null","16.68686666666666","798","448.5","1","1","1","1","1","","",""
"","psychophysics","78","256571","0.0-2.0-0.25","aya","[""L""]","","","","","","812","key","m","m","16.686471910112253","798","448.5","2","0","0","1","1","true","",""
"","psychophysics","79","257579","0.0-2.0-1.25","aya","[""L""]","","","","","","null","key","null","null","16.686849999999687","798","448.5","2","0","0","1","1","","",""
"","psychophysics","80","258588","0.0-2.0-2.25-0.25","aya","[""L""]","","","","","","null","key","null","null","16.685745762711907","798","448.5","2","0","0","1","1","","",""
"","psychophysics","81","259629","0.0-2.0-0.26","aya","[""L""]","","","","","","335","key","z","z","16.68667741935473","798","448.5","2","1","0","0","1","false","",""
"","psychophysics","82","260635","0.0-2.0-1.26","aya","[""L""]","","","","","","null","key","null","null","16.685915254236996","798","448.5","2","1","0","0","1","","",""
"","psychophysics","83","261646","0.0-2.0-3.26-0.26","aya","[""L""]","","","","","","null","key","null","null","16.686933333333098","798","448.5","2","1","0","0","1","","",""
"","psychophysics","84","263366","0.0-2.0-0.27","aya","[""L""]","","","","","","1015","key","z","z","16.68658823529418","798","448.5","2","1","1","0","1","false","",""
"","psychophysics","85","264373","0.0-2.0-1.27","aya","[""L""]","","","","","","null","key","null","null","16.685915254236996","798","448.5","2","1","1","0","1","","",""
"","psychophysics","86","265384","0.0-2.0-3.27-0.27","aya","[""L""]","","","","","","null","key","null","null","16.68621666666683","798","448.5","2","1","1","0","1","","",""
"","psychophysics","87","266987","0.0-2.0-0.28","aya","[""L""]","","","","","","899","key","z","z","16.685747368421136","798","448.5","1","0","0","1","1","true","",""
"","psychophysics","88","267994","0.0-2.0-1.28","aya","[""L""]","","","","","","null","key","null","null","16.68576271186476","798","448.5","1","0","0","1","1","","",""
"","psychophysics","89","269006","0.0-2.0-2.28-0.28","aya","[""L""]","","","","","","null","key","null","null","16.686249999999806","798","448.5","1","0","0","1","1","","",""
"","psychophysics","90","270541","0.0-2.0-0.29","aya","[""L""]","","","","","","831","key","m","m","16.686549450549716","798","448.5","2","1","0","0","1","true","",""
"","psychophysics","91","271548","0.0-2.0-1.29","aya","[""L""]","","","","","","null","key","null","null","16.685779661016138","798","448.5","2","1","0","0","1","","",""
"","psychophysics","92","272559","0.0-2.0-2.29-0.29","aya","[""L""]","","","","","","null","key","null","null","16.68678333333325","798","448.5","2","1","0","0","1","","",""
"","psychophysics","93","274587","0.0-2.0-0.30","aya","[""L""]","","","","","","1325","key","z","z","16.68574166666658","798","448.5","2","1","0","1","1","false","",""
"","psychophysics","94","275596","0.0-2.0-1.30","aya","[""L""]","","","","","","null","key","null","null","16.686500000000038","798","448.5","2","1","0","1","1","","",""
"","psychophysics","95","276604","0.0-2.0-3.30-0.30","aya","[""L""]","","","","","","null","key","null","null","16.685644067796265","798","448.5","2","1","0","1","1","","",""
"","psychophysics","96","279211","0.0-2.0-0.31","aya","[""L""]","","","","","","1904","key","m","m","16.68620645161305","798","448.5","1","0","0","1","1","false","",""
"","psychophysics","97","280219","0.0-2.0-1.31","aya","[""L""]","","","","","","null","key","null","null","16.68678333333325","798","448.5","1","0","0","1","1","","",""
"","psychophysics","98","281228","0.0-2.0-3.31-0.31","aya","[""L""]","","","","","","null","key","null","null","16.68576271186476","798","448.5","1","0","0","1","1","","",""
"","psychophysics","99","282843","0.0-2.0-0.32","aya","[""L""]","","","","","","911","key","z","z","16.686427083333303","798","448.5","1","0","0","1","1","true","",""
"","psychophysics","100","283851","0.0-2.0-1.32","aya","[""L""]","","","","","","null","key","null","null","16.686898305084778","798","448.5","1","0","0","1","1","","",""
"","psychophysics","101","284861","0.0-2.0-2.32-0.32","aya","[""L""]","","","","","","null","key","null","null","16.686733333332814","798","448.5","1","0","0","1","1","","",""
"","psychophysics","102","286723","0.0-2.0-0.33","aya","[""L""]","","","","","","1159","key","m","m","16.686336363636126","798","448.5","2","1","1","1","0","true","",""
"","psychophysics","103","287731","0.0-2.0-1.33","aya","[""L""]","","","","","","null","key","null","null","16.685699999999876","798","448.5","2","1","1","1","0","","",""
"","psychophysics","104","288743","0.0-2.0-2.33-0.33","aya","[""L""]","","","","","","null","key","null","null","16.686100000000444","798","448.5","2","1","1","1","0","","",""
"","psychophysics","105","290075","0.0-2.0-0.34","aya","[""L""]","","","","","","630","key","m","m","16.686692307692002","798","448.5","2","0","0","0","1","true","",""
"","psychophysics","106","291084","0.0-2.0-1.34","aya","[""L""]","","","","","","null","key","null","null","16.687100000000402","798","448.5","2","0","0","0","1","","",""
"","psychophysics","107","292092","0.0-2.0-2.34-0.34","aya","[""L""]","","","","","","null","key","null","null","16.68559322033918","798","448.5","2","0","0","0","1","","",""
"","psychophysics","108","293484","0.0-2.0-0.35","aya","[""L""]","","","","","","685","key","z","z","16.686891566264915","798","448.5","2","1","1","0","1","false","",""
"","psychophysics","109","294491","0.0-2.0-1.35","aya","[""L""]","","","","","","null","key","null","null","16.685728813559052","798","448.5","2","1","1","0","1","","",""
"","psychophysics","110","295502","0.0-2.0-3.35-0.35","aya","[""L""]","","","","","","null","key","null","null","16.686500000000038","798","448.5","2","1","1","0","1","","",""
"","psychophysics","111","296515","0.0-2.0-0.36","aya","[""L""]","","","","","","309","key","m","m","16.686050847457857","798","448.5","2","0","1","0","1","true","",""
"","psychophysics","112","297523","0.0-2.0-1.36","aya","[""L""]","","","","","","null","key","null","null","16.686900000000605","798","448.5","2","0","1","0","1","","",""
"","psychophysics","113","298531","0.0-2.0-2.36-0.36","aya","[""L""]","","","","","","null","key","null","null","16.68538983050888","798","448.5","2","0","1","0","1","","",""
"","psychophysics","114","300027","0.0-2.0-0.37","aya","[""L""]","","","","","","793","key","m","m","16.686651685393514","798","448.5","2","1","0","1","1","true","",""
"","psychophysics","115","301034","0.0-2.0-1.37","aya","[""L""]","","","","","","null","key","null","null","16.685949152541717","798","448.5","2","1","0","1","1","","",""
"","psychophysics","116","302044","0.0-2.0-2.37-0.37","aya","[""L""]","","","","","","null","key","null","null","16.686633333332914","798","448.5","2","1","0","1","1","","",""
"","psychophysics","117","304947","0.0-2.0-0.38","aya","[""L""]","","","","","","2199","key","m","m","16.68586127167619","798","448.5","2","0","0","0","1","true","",""
"","psychophysics","118","305954","0.0-2.0-1.38","aya","[""L""]","","","","","","null","key","null","null","16.68615254237301","798","448.5","2","0","0","0","1","","",""
"","psychophysics","119","306965","0.0-2.0-2.38-0.38","aya","[""L""]","","","","","","null","key","null","null","16.68638333333365","798","448.5","2","0","0","0","1","","",""
"","psychophysics","120","308835","0.0-2.0-0.39","aya","[""L""]","","","","","","1166","key","m","m","16.686036036036246","798","448.5","2","0","1","1","1","true","",""
"","psychophysics","121","309842","0.0-2.0-1.39","aya","[""L""]","","","","","","null","key","null","null","16.686542372881252","798","448.5","2","0","1","1","1","","",""
"","psychophysics","122","310854","0.0-2.0-2.39-0.39","aya","[""L""]","","","","","","null","key","null","null","16.687066666666457","798","448.5","2","0","1","1","1","","",""
"","psychophysics","123","312723","0.0-2.0-0.40","aya","[""L""]","","","","","","1166","key","m","m","16.68581081081081","798","448.5","1","0","1","1","0","false","",""
"","psychophysics","124","313730","0.0-2.0-1.40","aya","[""L""]","","","","","","null","key","null","null","16.686084745762578","798","448.5","1","0","1","1","0","","",""
"","psychophysics","125","314741","0.0-2.0-3.40-0.40","aya","[""L""]","","","","","","null","key","null","null","16.686549999999503","798","448.5","1","0","1","1","0","","",""
"","psychophysics","126","316435","0.0-2.0-0.41","aya","[""L""]","","","","","","989","key","z","z","16.68570999999996","798","448.5","1","1","0","0","1","true","",""
"","psychophysics","127","317444","0.0-2.0-1.41","aya","[""L""]","","","","","","null","key","null","null","16.686983333333046","798","448.5","1","1","0","0","1","","",""
"","psychophysics","128","318452","0.0-2.0-2.41-0.41","aya","[""L""]","","","","","","null","key","null","null","16.68559322033918","798","448.5","1","1","0","0","1","","",""
"","psychophysics","129","319815","0.0-2.0-0.42","aya","[""L""]","","","","","","658","key","z","z","16.68651851851861","798","448.5","1","1","1","1","1","true","",""
"","psychophysics","130","320822","0.0-2.0-1.42","aya","[""L""]","","","","","","null","key","null","null","16.68605084745687","798","448.5","1","1","1","1","1","","",""
"","psychophysics","131","321833","0.0-2.0-2.42-0.42","aya","[""L""]","","","","","","null","key","null","null","16.686733333332814","798","448.5","1","1","1","1","1","","",""
"","psychophysics","132","323291","0.0-2.0-0.43","aya","[""L""]","","","","","","755","key","m","m","16.685779069767598","798","448.5","2","0","1","0","1","true","",""
"","psychophysics","133","324302","0.0-2.0-1.43","aya","[""L""]","","","","","","null","key","null","null","16.686649999999403","798","448.5","2","0","1","0","1","","",""
"","psychophysics","134","325313","0.0-2.0-2.43-0.43","aya","[""L""]","","","","","","null","key","null","null","16.685881355932274","798","448.5","2","0","1","0","1","","",""
"","psychophysics","135","326907","0.0-2.0-0.44","aya","[""L""]","","","","","","890","key","z","z","16.686357894736513","798","448.5","1","0","1","1","0","true","",""
"","psychophysics","136","327914","0.0-2.0-1.44","aya","[""L""]","","","","","","null","key","null","null","16.685932203390344","798","448.5","1","0","1","1","0","","",""
"","psychophysics","137","328924","0.0-2.0-2.44-0.44","aya","[""L""]","","","","","","null","key","null","null","16.687000000000506","798","448.5","1","0","1","1","0","","",""
"","psychophysics","138","330571","0.0-2.0-0.45","aya","[""L""]","","","","","","944","key","m","m","16.685938144330123","798","448.5","1","1","1","1","0","false","",""
"","psychophysics","139","331579","0.0-2.0-1.45","aya","[""L""]","","","","","","null","key","null","null","16.685350000000714","798","448.5","1","1","1","1","0","","",""
"","psychophysics","140","332590","0.0-2.0-3.45-0.45","aya","[""L""]","","","","","","null","key","null","null","16.68549152542403","798","448.5","1","1","1","1","0","","",""
"","psychophysics","141","333667","0.0-2.0-0.46","aya","[""L""]","","","","","","371","key","z","z","16.68792187500003","798","448.5","1","1","0","1","1","true","",""
"","psychophysics","142","334674","0.0-2.0-1.46","aya","[""L""]","","","","","","null","key","null","null","16.685677966100986","798","448.5","1","1","0","1","1","","",""
"","psychophysics","143","335684","0.0-2.0-2.46-0.46","aya","[""L""]","","","","","","null","key","null","null","16.686900000000605","798","448.5","1","1","0","1","1","","",""
"","psychophysics","144","336459","0.0-2.0-0.47","aya","[""L""]","","","","","","72","key","m","m","16.68633333333354","798","448.5","1","1","0","1","0","false","",""
"","psychophysics","145","337467","0.0-2.0-1.47","aya","[""L""]","","","","","","null","key","null","null","16.685883333334157","798","448.5","1","1","0","1","0","","",""
"","psychophysics","146","338476","0.0-2.0-3.47-0.47","aya","[""L""]","","","","","","null","key","null","null","16.685915254237983","798","448.5","1","1","0","1","0","","",""
"","psychophysics","147","340188","0.0-2.0-0.48","aya","[""L""]","","","","","","1007","key","z","z","16.686470588235476","798","448.5","1","1","1","0","1","true","",""
"","psychophysics","148","341195","0.0-2.0-1.48","aya","[""L""]","","","","","","null","key","null","null","16.68500000000063","798","448.5","1","1","1","0","1","","",""
"","psychophysics","149","342206","0.0-2.0-2.48-0.48","aya","[""L""]","","","","","","null","key","null","null","16.686733333333784","798","448.5","1","1","1","0","1","","",""
"","psychophysics","150","344092","0.0-2.0-0.49","aya","[""L""]","","","","","","1183","key","m","m","16.685848214285734","798","448.5","2","1","0","1","0","true","",""
"","psychophysics","151","345099","0.0-2.0-1.49","aya","[""L""]","","","","","","null","key","null","null","16.68581355932283","798","448.5","2","1","0","1","0","","",""
"","psychophysics","152","346111","0.0-2.0-2.49-0.49","aya","[""L""]","","","","","","null","key","null","null","16.686900000000605","798","448.5","2","1","0","1","0","","",""
"","psychophysics","153","347997","0.0-2.0-0.50","aya","[""L""]","","","","","","1183","key","z","z","16.685910714285587","798","448.5","1","1","0","1","0","true","",""
"","psychophysics","154","349004","0.0-2.0-1.50","aya","[""L""]","","","","","","null","key","null","null","16.686305084746227","798","448.5","1","1","0","1","0","","",""
"","psychophysics","155","350015","0.0-2.0-2.50-0.50","aya","[""L""]","","","","","","null","key","null","null","16.686800000000705","798","448.5","1","1","0","1","0","","",""
"","psychophysics","156","351723","0.0-2.0-0.51","aya","[""L""]","","","","","","1004","key","m","m","16.68561386138588","798","448.5","1","1","1","0","1","false","",""
"","psychophysics","157","352731","0.0-2.0-1.51","aya","[""L""]","","","","","","null","key","null","null","16.6864406779661","798","448.5","1","1","1","0","1","","",""
"","psychophysics","158","353740","0.0-2.0-3.51-0.51","aya","[""L""]","","","","","","null","key","null","null","16.68540000000018","798","448.5","1","1","1","0","1","","",""
"","psychophysics","159","355572","0.0-2.0-0.52","aya","[""L""]","","","","","","1129","key","z","z","16.68588073394494","798","448.5","1","0","0","1","1","true","",""
"","psychophysics","160","356579","0.0-2.0-1.52","aya","[""L""]","","","","","","null","key","null","null","16.68618644067773","798","448.5","1","0","0","1","1","","",""
"","psychophysics","161","357590","0.0-2.0-2.52-0.52","aya","[""L""]","","","","","","null","key","null","null","16.686633333333884","798","448.5","1","0","0","1","1","","",""
"","psychophysics","162","360363","0.0-2.0-0.53","aya","[""L""]","","","","","","2069","key","m","m","16.68588484848504","798","448.5","1","1","0","1","1","false","",""
"","psychophysics","163","361370","0.0-2.0-1.53","aya","[""L""]","","","","","","null","key","null","null","16.686423728812755","798","448.5","1","1","0","1","1","","",""
"","psychophysics","164","362381","0.0-2.0-3.53-0.53","aya","[""L""]","","","","","","null","key","null","null","16.68669999999984","798","448.5","1","1","0","1","1","","",""
"","psychophysics","165","364132","0.0-2.0-0.54","aya","[""L""]","","","","","","1048","key","m","m","16.68573076923125","798","448.5","2","1","1","1","1","true","",""
"","psychophysics","166","365138","0.0-2.0-1.54","aya","[""L""]","","","","","","null","key","null","null","16.68640677966138","798","448.5","2","1","1","1","1","","",""
"","psychophysics","167","366150","0.0-2.0-2.54-0.54","aya","[""L""]","","","","","","null","key","null","null","16.686650000000373","798","448.5","2","1","1","1","1","","",""
"","psychophysics","168","368300","0.0-2.0-0.55","aya","[""L""]","","","","","","1447","key","m","m","16.685866141732596","798","448.5","1","0","1","1","1","false","",""
"","psychophysics","169","369307","0.0-2.0-1.55","aya","[""L""]","","","","","","null","key","null","null","16.68686666666666","798","448.5","1","0","1","1","1","","",""
"","psychophysics","170","370315","0.0-2.0-3.55-0.55","aya","[""L""]","","","","","","null","key","null","null","16.6857457627124","798","448.5","1","0","1","1","1","","",""
"","psychophysics","171","371331","0.0-2.0-0.56","aya","[""L""]","","","","","","308","key","z","z","16.686799999999735","798","448.5","2","0","0","1","1","false","",""
"","psychophysics","172","372340","0.0-2.0-1.56","aya","[""L""]","","","","","","null","key","null","null","16.686816666666225","798","448.5","2","0","0","1","1","","",""
"","psychophysics","173","373348","0.0-2.0-3.56-0.56","aya","[""L""]","","","","","","null","key","null","null","16.685898305084635","798","448.5","2","0","0","1","1","","",""
"","psychophysics","174","374794","0.0-2.0-0.57","aya","[""L""]","","","","","","742","key","z","z","16.68656976744167","798","448.5","2","0","0","0","0","false","",""
"","psychophysics","175","375801","0.0-2.0-1.57","aya","[""L""]","","","","","","null","key","null","null","16.685915254237983","798","448.5","2","0","0","0","0","","",""
"","psychophysics","176","376812","0.0-2.0-3.57-0.57","aya","[""L""]","","","","","","null","key","null","null","16.686500000000038","798","448.5","2","0","0","0","0","","",""
"","psychophysics","177","378555","0.0-2.0-0.58","aya","[""L""]","","","","","","1039","key","m","m","16.685524271845193","798","448.5","1","1","0","1","0","false","",""
"","psychophysics","178","379565","0.0-2.0-1.58","aya","[""L""]","","","","","","null","key","null","null","16.686916666666125","798","448.5","1","1","0","1","0","","",""
"","psychophysics","179","380575","0.0-2.0-3.58-0.58","aya","[""L""]","","","","","","null","key","null","null","16.685542372881113","798","448.5","1","1","0","1","0","","",""
"","psychophysics","180","382490","0.0-2.0-0.59","aya","[""L""]","","","","","","1211","key","z","z","16.68630701754387","798","448.5","2","1","0","0","1","false","",""
"","psychophysics","181","383498","0.0-2.0-1.59","aya","[""L""]","","","","","","null","key","null","null","16.68622033898344","798","448.5","2","1","0","0","1","","",""
"","psychophysics","182","384507","0.0-2.0-3.59-0.59","aya","[""L""]","","","","","","null","key","null","null","16.68669999999984","798","448.5","2","1","0","0","1","","",""
"","psychophysics","183","385827","0.0-2.0-0.60","aya","[""L""]","","","","","","616","key","z","z","16.68582051282059","798","448.5","2","0","0","0","0","false","",""
"","psychophysics","184","386834","0.0-2.0-1.60","aya","[""L""]","","","","","","null","key","null","null","16.6869322033895","798","448.5","2","0","0","0","0","","",""
"","psychophysics","185","387843","0.0-2.0-3.60-0.60","aya","[""L""]","","","","","","null","key","null","null","16.686716666666324","798","448.5","2","0","0","0","0","","",""
"","psychophysics","186","389595","0.0-2.0-0.61","aya","[""L""]","","","","","","1047","key","z","z","16.68577884615437","798","448.5","2","0","0","1","1","false","",""
"","psychophysics","187","390601","0.0-2.0-1.61","aya","[""L""]","","","","","","null","key","null","null","16.686067796610217","798","448.5","2","0","0","1","1","","",""
"","psychophysics","188","391612","0.0-2.0-3.61-0.61","aya","[""L""]","","","","","","null","key","null","null","16.686416666666627","798","448.5","2","0","0","1","1","","",""
"","psychophysics","189","393274","0.0-2.0-0.62","aya","[""L""]","","","","","","958","key","z","z","16.685724489795927","798","448.5","1","0","0","1","1","true","",""
"","psychophysics","190","394282","0.0-2.0-1.62","aya","[""L""]","","","","","","null","key","null","null","16.68678333333325","798","448.5","1","0","0","1","1","","",""
"","psychophysics","191","395290","0.0-2.0-2.62-0.62","aya","[""L""]","","","","","","null","key","null","null","16.685694915253347","798","448.5","1","0","0","1","1","","",""
"","psychophysics","192","396970","0.0-2.0-0.63","aya","[""L""]","","","","","","977","key","z","z","16.68640000000014","798","448.5","1","1","1","1","1","true","",""
"","psychophysics","193","397978","0.0-2.0-1.63","aya","[""L""]","","","","","","null","key","null","null","16.686050847457857","798","448.5","1","1","1","1","1","","",""
"","psychophysics","194","398988","0.0-2.0-2.63-0.63","aya","[""L""]","","","","","","null","key","null","null","16.686333333334186","798","448.5","1","1","1","1","1","","",""
"","psychophysics","195","400443","0.0-2.0-0.64","aya","[""L""]","","","","","","751","key","z","z","16.68590697674365","798","448.5","1","0","0","1","1","true","",""
"","psychophysics","196","401450","0.0-2.0-1.64","aya","[""L""]","","","","","","null","key","null","null","16.685949152541717","798","448.5","1","0","0","1","1","","",""
"","psychophysics","197","402460","0.0-2.0-2.64-0.64","aya","[""L""]","","","","","","null","key","null","null","16.68593333333362","798","448.5","1","0","0","1","1","","",""
"","psychophysics","198","403938","0.0-2.0-0.65","aya","[""L""]","","","","","","775","key","z","z","16.685793103448827","798","448.5","1","1","1","1","1","true","",""
"","psychophysics","199","404947","0.0-2.0-1.65","aya","[""L""]","","","","","","null","key","null","null","16.68613333333342","798","448.5","1","1","1","1","1","","",""
"","psychophysics","200","405956","0.0-2.0-2.65-0.65","aya","[""L""]","","","","","","null","key","null","null","16.686915254238126","798","448.5","1","1","1","1","1","","",""
"","psychophysics","201","407966","0.0-2.0-0.66","aya","[""L""]","","","","","","1302","key","z","z","16.686333333333703","798","448.5","1","1","0","1","0","true","",""
"","psychophysics","202","408973","0.0-2.0-1.66","aya","[""L""]","","","","","","null","key","null","null","16.685864406779913","798","448.5","1","1","0","1","0","","",""
"","psychophysics","203","409984","0.0-2.0-2.66-0.66","aya","[""L""]","","","","","","null","key","null","null","16.68686666666666","798","448.5","1","1","0","1","0","","",""
"","psychophysics","204","411595","0.0-2.0-0.67","aya","[""L""]","","","","","","908","key","m","m","16.685642105263142","798","448.5","2","0","1","0","1","true","",""
"","psychophysics","205","412603","0.0-2.0-1.67","aya","[""L""]","","","","","","null","key","null","null","16.687549999999465","798","448.5","2","0","1","0","1","","",""
"","psychophysics","206","413612","0.0-2.0-2.67-0.67","aya","[""L""]","","","","","","null","key","null","null","16.68549152542403","798","448.5","2","0","1","0","1","","",""
"","psychophysics","207","415266","0.0-2.0-0.68","aya","[""L""]","","","","","","950","key","z","z","16.686081632653405","798","448.5","2","0","1","0","0","false","",""
"","psychophysics","208","416274","0.0-2.0-1.68","aya","[""L""]","","","","","","null","key","null","null","16.686349999999706","798","448.5","2","0","1","0","0","","",""
"","psychophysics","209","417284","0.0-2.0-3.68-0.68","aya","[""L""]","","","","","","null","key","null","null","16.68572881356004","798","448.5","2","0","1","0","0","","",""
"","psychophysics","210","420202","0.0-2.0-0.69","aya","[""L""]","","","","","","2214","key","m","m","16.686045977011343","798","448.5","1","0","0","0","1","false","",""
"","psychophysics","211","421213","0.0-2.0-1.69","aya","[""L""]","","","","","","null","key","null","null","16.687083333333916","798","448.5","1","0","0","0","1","","",""
"","psychophysics","212","422221","0.0-2.0-3.69-0.69","aya","[""L""]","","","","","","null","key","null","null","16.68567796610197","798","448.5","1","0","0","0","1","","",""
"","psychophysics","213","423635","0.0-2.0-0.70","aya","[""L""]","","","","","","710","key","z","z","16.68658333333345","798","448.5","1","0","1","1","1","true","",""
"","psychophysics","214","424642","0.0-2.0-1.70","aya","[""L""]","","","","","","null","key","null","null","16.685779661017122","798","448.5","1","0","1","1","1","","",""
"","psychophysics","215","425652","0.0-2.0-2.70-0.70","aya","[""L""]","","","","","","null","key","null","null","16.686099999999474","798","448.5","1","0","1","1","1","","",""
"","psychophysics","216","427123","0.0-2.0-0.71","aya","[""L""]","","","","","","767","key","z","z","16.685701149425487","798","448.5","1","0","0","0","1","true","",""
"","psychophysics","217","428130","0.0-2.0-1.71","aya","[""L""]","","","","","","null","key","null","null","16.685915254237983","798","448.5","1","0","0","0","1","","",""
"","psychophysics","218","429140","0.0-2.0-2.71-0.71","aya","[""L""]","","","","","","null","key","null","null","16.686633333332914","798","448.5","1","0","0","0","1","","",""
"","psychophysics","219","430635","0.0-2.0-0.72","aya","[""L""]","","","","","","791","key","m","m","16.68594318181832","798","448.5","2","0","0","1","1","true","",""
"","psychophysics","220","431643","0.0-2.0-1.72","aya","[""L""]","","","","","","null","key","null","null","16.685533333333055","798","448.5","2","0","0","1","1","","",""
"","psychophysics","221","432654","0.0-2.0-2.72-0.72","aya","[""L""]","","","","","","null","key","null","null","16.685830508474204","798","448.5","2","0","0","1","1","","",""
"","psychophysics","222","434219","0.0-2.0-0.73","aya","[""L""]","","","","","","858","key","z","z","16.686354838709736","798","448.5","1","1","1","1","0","true","",""
"","psychophysics","223","435229","0.0-2.0-1.73","aya","[""L""]","","","","","","null","key","null","null","16.686799999999735","798","448.5","1","1","1","1","0","","",""
"","psychophysics","224","436239","0.0-2.0-2.73-0.73","aya","[""L""]","","","","","","null","key","null","null","16.685983050847426","798","448.5","1","1","1","1","0","","",""
"","psychophysics","225","438067","0.0-2.0-0.74","aya","[""L""]","","","","","","1123","key","m","m","16.686394495412667","798","448.5","1","1","1","1","1","false","",""
"","psychophysics","226","439074","0.0-2.0-1.74","aya","[""L""]","","","","","","null","key","null","null","16.685677966100986","798","448.5","1","1","1","1","1","","",""
"","psychophysics","227","440085","0.0-2.0-3.74-0.74","aya","[""L""]","","","","","","null","key","null","null","16.686550000000473","798","448.5","1","1","1","1","1","","",""
"","psychophysics","228","441611","0.0-2.0-0.75","aya","[""L""]","","","","","","821","key","m","m","16.68588888888933","798","448.5","2","0","1","1","0","true","",""
"","psychophysics","229","442621","0.0-2.0-1.75","aya","[""L""]","","","","","","null","key","null","null","16.686483333333552","798","448.5","2","0","1","1","0","","",""
"","psychophysics","230","443629","0.0-2.0-2.75-0.75","aya","[""L""]","","","","","","null","key","null","null","16.685728813559052","798","448.5","2","0","1","1","0","","",""
"","psychophysics","231","445283","0.0-2.0-0.76","aya","[""L""]","","","","","","950","key","m","m","16.686163265306185","798","448.5","2","1","1","1","0","true","",""
"","psychophysics","232","446292","0.0-2.0-1.76","aya","[""L""]","","","","","","null","key","null","null","16.68686666666666","798","448.5","2","1","1","1","0","","",""
"","psychophysics","233","447302","0.0-2.0-2.76-0.76","aya","[""L""]","","","","","","null","key","null","null","16.685779661017122","798","448.5","2","1","1","1","0","","",""
"","psychophysics","234","448875","0.0-2.0-0.77","aya","[""L""]","","","","","","869","key","z","z","16.68656989247338","798","448.5","1","1","0","1","1","true","",""
"","psychophysics","235","449882","0.0-2.0-1.77","aya","[""L""]","","","","","","null","key","null","null","16.683666666666976","798","448.5","1","1","0","1","1","","",""
"","psychophysics","236","450893","0.0-2.0-2.77-0.77","aya","[""L""]","","","","","","null","key","null","null","16.686033898305496","798","448.5","1","1","0","1","1","","",""
"","psychophysics","237","452350","0.0-2.0-0.78","aya","[""L""]","","","","","","751","key","z","z","16.686655172413808","798","448.5","2","0","0","0","0","false","",""
"","psychophysics","238","453357","0.0-2.0-1.78","aya","[""L""]","","","","","","null","key","null","null","16.67789830508547","798","448.5","2","0","0","0","0","","",""
"","psychophysics","239","454368","0.0-2.0-3.78-0.78","aya","[""L""]","","","","","","null","key","null","null","16.686616666667398","798","448.5","2","0","0","0","0","","",""
"","psychophysics","240","457406","0.0-2.0-0.79","aya","[""L""]","","","","","","2334","key","m","m","16.68582320442","798","448.5","2","0","1","0","1","true","",""
"","psychophysics","241","458413","0.0-2.0-1.79","aya","[""L""]","","","","","","null","key","null","null","16.68571186440669","798","448.5","2","0","1","0","1","","",""
"","psychophysics","242","459425","0.0-2.0-2.79-0.79","aya","[""L""]","","","","","","null","key","null","null","16.686833333333684","798","448.5","2","0","1","0","1","","",""
"","psychophysics","243","461827","0.0-2.0-0.80","aya","[""L""]","","","","","","1698","key","z","z","16.68584615384616","798","448.5","1","0","0","1","1","true","",""
"","psychophysics","244","462834","0.0-2.0-1.80","aya","[""L""]","","","","","","null","key","null","null","16.68545762711832","798","448.5","1","0","0","1","1","","",""
"","psychophysics","245","463846","0.0-2.0-2.80-0.80","aya","[""L""]","","","","","","null","key","null","null","16.68676666666676","798","448.5","1","0","0","1","1","","",""
"","psychophysics","246","467467","0.0-2.0-0.81","aya","[""L""]","","","","","","2918","key","z","z","16.685888888888897","798","448.5","1","0","0","0","1","true","",""
"","psychophysics","247","468475","0.0-2.0-1.81","aya","[""L""]","","","","","","null","key","null","null","16.685627118643904","798","448.5","1","0","0","0","1","","",""
"","psychophysics","248","469486","0.0-2.0-2.81-0.81","aya","[""L""]","","","","","","null","key","null","null","16.68713333333338","798","448.5","1","0","0","0","1","","",""
"","psychophysics","249","471522","0.0-2.0-0.82","aya","[""L""]","","","","","","1333","key","z","z","16.685966942148582","798","448.5","1","0","0","1","1","true","",""
"","psychophysics","250","472529","0.0-2.0-1.82","aya","[""L""]","","","","","","null","key","null","null","16.685796610169483","798","448.5","1","0","0","1","1","","",""
"","psychophysics","251","473540","0.0-2.0-2.82-0.82","aya","[""L""]","","","","","","null","key","null","null","16.686483333333552","798","448.5","1","0","0","1","1","","",""
"","psychophysics","252","476461","0.0-2.0-0.83","aya","[""L""]","","","","","","2217","key","z","z","16.68589080459754","798","448.5","2","1","0","1","0","false","",""
"","psychophysics","253","477468","0.0-2.0-1.83","aya","[""L""]","","","","","","null","key","null","null","16.682864406780475","798","448.5","2","1","0","1","0","","",""
"","psychophysics","254","478479","0.0-2.0-3.83-0.83","aya","[""L""]","","","","","","null","key","null","null","16.68628333333375","798","448.5","2","1","0","1","0","","",""
"","psychophysics","255","480522","0.0-2.0-0.84","aya","[""L""]","","","","","","1338","key","m","m","16.685818181818156","798","448.5","2","0","0","1","1","true","",""
"","psychophysics","256","481533","0.0-2.0-1.84","aya","[""L""]","","","","","","null","key","null","null","16.687100000000402","798","448.5","2","0","0","1","1","","",""
"","psychophysics","257","482541","0.0-2.0-2.84-0.84","aya","[""L""]","","","","","","null","key","null","null","16.685847457627553","798","448.5","2","0","0","1","1","","",""
"","psychophysics","258","484914","0.0-2.0-0.85","aya","[""L""]","","","","","","1670","key","z","z","16.68626241134777","798","448.5","1","1","0","1","1","true","",""
"","psychophysics","259","485923","0.0-2.0-1.85","aya","[""L""]","","","","","","null","key","null","null","16.686500000000038","798","448.5","1","1","0","1","1","","",""
"","psychophysics","260","486932","0.0-2.0-2.85-0.85","aya","[""L""]","","","","","","null","key","null","null","16.686169491526353","798","448.5","1","1","0","1","1","","",""
"","psychophysics","261","490131","0.0-2.0-0.86","aya","[""L""]","","","","","","2490","key","z","z","16.68626178010472","798","448.5","1","0","0","1","0","true","",""
"","psychophysics","262","491139","0.0-2.0-1.86","aya","[""L""]","","","","","","null","key","null","null","16.68576271186476","798","448.5","1","0","0","1","0","","",""
"","psychophysics","263","492149","0.0-2.0-2.86-0.86","aya","[""L""]","","","","","","null","key","null","null","16.68668333333335","798","448.5","1","0","0","1","0","","",""
"","psychophysics","264","494995","0.0-2.0-0.87","aya","[""L""]","","","","","","2142","key","m","m","16.686076923076836","798","448.5","2","1","0","1","1","true","",""
"","psychophysics","265","496003","0.0-2.0-1.87","aya","[""L""]","","","","","","null","key","null","null","16.686649999999403","798","448.5","2","1","0","1","1","","",""
"","psychophysics","266","497011","0.0-2.0-2.87-0.87","aya","[""L""]","","","","","","null","key","null","null","16.686016949153135","798","448.5","2","1","0","1","1","","",""
"","psychophysics","267","498874","0.0-2.0-0.88","aya","[""L""]","","","","","","1156","key","z","z","16.68576576576625","798","448.5","1","1","0","1","1","true","",""
"","psychophysics","268","499882","0.0-2.0-1.88","aya","[""L""]","","","","","","null","key","null","null","16.68640677966138","798","448.5","1","1","0","1","1","","",""
"","psychophysics","269","500893","0.0-2.0-2.88-0.88","aya","[""L""]","","","","","","null","key","null","null","16.686000000000544","798","448.5","1","1","0","1","1","","",""
"","psychophysics","270","502787","0.0-2.0-0.89","aya","[""L""]","","","","","","1190","key","z","z","16.686312499999726","798","448.5","1","1","1","1","1","true","",""
"","psychophysics","271","503795","0.0-2.0-1.89","aya","[""L""]","","","","","","null","key","null","null","16.68538333333369","798","448.5","1","1","1","1","1","","",""
"","psychophysics","272","504804","0.0-2.0-2.89-0.89","aya","[""L""]","","","","","","null","key","null","null","16.685881355932274","798","448.5","1","1","1","1","1","","",""
"","psychophysics","273","506498","0.0-2.0-0.90","aya","[""L""]","","","","","","987","key","z","z","16.686405940593964","798","448.5","1","1","0","1","1","true","",""
"","psychophysics","274","507506","0.0-2.0-1.90","aya","[""L""]","","","","","","null","key","null","null","16.68567796610197","798","448.5","1","1","0","1","1","","",""
"","psychophysics","275","508516","0.0-2.0-2.90-0.90","aya","[""L""]","","","","","","null","key","null","null","16.686616666667398","798","448.5","1","1","0","1","1","","",""
"","psychophysics","276","510386","0.0-2.0-0.91","aya","[""L""]","","","","","","1167","key","m","m","16.685792792792984","798","448.5","2","1","1","1","1","true","",""
"","psychophysics","277","511394","0.0-2.0-1.91","aya","[""L""]","","","","","","null","key","null","null","16.685932203389356","798","448.5","2","1","1","1","1","","",""
"","psychophysics","278","512403","0.0-2.0-2.91-0.91","aya","[""L""]","","","","","","null","key","null","null","16.68685000000017","798","448.5","2","1","1","1","1","","",""
"","psychophysics","279","513899","0.0-2.0-0.92","aya","[""L""]","","","","","","791","key","z","z","16.685840909090818","798","448.5","1","1","0","1","1","true","",""
"","psychophysics","280","514907","0.0-2.0-1.92","aya","[""L""]","","","","","","null","key","null","null","16.68666666666686","798","448.5","1","1","0","1","1","","",""
"","psychophysics","281","515916","0.0-2.0-2.92-0.92","aya","[""L""]","","","","","","null","key","null","null","16.68701694915229","798","448.5","1","1","0","1","1","","",""
"","psychophysics","282","519578","0.0-2.0-0.93","aya","[""L""]","","","","","","2955","key","z","z","16.68610502283124","798","448.5","1","0","0","1","0","true","",""
"","psychophysics","283","520585","0.0-2.0-1.93","aya","[""L""]","","","","","","null","key","null","null","16.684813559322688","798","448.5","1","0","0","1","0","","",""
"","psychophysics","284","521595","0.0-2.0-2.93-0.93","aya","[""L""]","","","","","","null","key","null","null","16.68686666666666","798","448.5","1","0","0","1","0","","",""
"","psychophysics","285","524066","0.0-2.0-0.94","aya","[""L""]","","","","","","1768","key","m","m","16.685938775510493","798","448.5","2","0","0","1","0","true","",""
"","psychophysics","286","525073","0.0-2.0-1.94","aya","[""L""]","","","","","","null","key","null","null","16.68569491525433","798","448.5","2","0","0","1","0","","",""
"","psychophysics","287","526084","0.0-2.0-2.94-0.94","aya","[""L""]","","","","","","null","key","null","null","16.68666666666589","798","448.5","2","0","0","1","0","","",""
"","psychophysics","288","528210","0.0-2.0-0.95","aya","[""L""]","","","","","","1415","key","m","m","16.68576984126989","798","448.5","2","0","0","1","1","true","",""
"","psychophysics","289","529221","0.0-2.0-1.95","aya","[""L""]","","","","","","null","key","null","null","16.6869499999991","798","448.5","2","0","0","1","1","","",""
"","psychophysics","290","530230","0.0-2.0-2.95-0.95","aya","[""L""]","","","","","","null","key","null","null","16.686067796610217","798","448.5","2","0","0","1","1","","",""
"","psychophysics","291","532866","0.0-2.0-0.96","aya","[""L""]","","","","","","1932","key","z","z","16.68625477706987","798","448.5","1","0","0","1","0","true","",""
"","psychophysics","292","533876","0.0-2.0-1.96","aya","[""L""]","","","","","","null","key","null","null","16.686816666667195","798","448.5","1","0","0","1","0","","",""
"","psychophysics","293","534884","0.0-2.0-2.96-0.96","aya","[""L""]","","","","","","null","key","null","null","16.685576271186818","798","448.5","1","0","0","1","0","","",""
"","psychophysics","294","537298","0.0-2.0-0.97","aya","[""L""]","","","","","","1710","key","m","m","16.686201388888648","798","448.5","1","1","1","1","0","false","",""
"","psychophysics","295","538306","0.0-2.0-1.97","aya","[""L""]","","","","","","null","key","null","null","16.68593220339133","798","448.5","1","1","1","1","0","","",""
"","psychophysics","296","539316","0.0-2.0-3.97-0.97","aya","[""L""]","","","","","","null","key","null","null","16.686716666666324","798","448.5","1","1","1","1","0","","",""
"","psychophysics","297","541362","0.0-2.0-0.98","aya","[""L""]","","","","","","1344","key","z","z","16.685867768594964","798","448.5","2","0","0","0","1","false","",""
"","psychophysics","298","542371","0.0-2.0-1.98","aya","[""L""]","","","","","","null","key","null","null","16.68666666666589","798","448.5","2","0","0","0","1","","",""
"","psychophysics","299","543379","0.0-2.0-3.98-0.98","aya","[""L""]","","","","","","null","key","null","null","16.685779661017122","798","448.5","2","0","0","0","1","","",""
"","psychophysics","300","545266","0.0-2.0-0.99","aya","[""L""]","","","","","","1182","key","z","z","16.68619642857188","798","448.5","1","1","1","1","1","true","",""
"","psychophysics","301","546274","0.0-2.0-1.99","aya","[""L""]","","","","","","null","key","null","null","16.687449999999565","798","448.5","1","1","1","1","1","","",""
"","psychophysics","302","547283","0.0-2.0-2.99-0.99","aya","[""L""]","","","","","","null","key","null","null","16.685966101696053","798","448.5","1","1","1","1","1","","",""
"","html-keyboard-response","303","556498","0.0-2.0-4.99-0.99","aya","[""L""]","","","","","","9209","","","g","","","","","","","","","","<p>You have finished block 1 of 5.<p>You correctly predicted 70% of the races.<p>On the next screen, you will be given a 30 second break. Press the <b>g</b> key to start your break.",""
"","html-keyboard-response","304","557502","0.0-2.0-4.99-1.99-0.99","aya","[""L""]","","","","","","null","","","null","","","","","","","","","","<p>The experiment will resume in 30 seconds. ",""
"","html-keyboard-response","305","558506","0.0-2.0-4.99-1.99-1.99","aya","[""L""]","","","","","","null","","","null","","","","","","","","","","<p>The experiment will resume in 29 seconds. ",""
"","html-keyboard-response","306","559509","0.0-2.0-4.99-1.99-2.99","aya","[""L""]","","","","","","null","","","null","","","","","","","","","","<p>The experiment will resume in 28 seconds. ",""
"","html-keyboard-response","307","560512","0.0-2.0-4.99-1.99-3.99","aya","[""L""]","","","","","","null","","","null","","","","","","","","","","<p>The experiment will resume in 27 seconds. ",""
"","html-keyboard-response","308","561515","0.0-2.0-4.99-1.99-4.99","aya","[""L""]","","","","","","null","","","null","","","","","","","","","","<p>The experiment will resume in 26 seconds. ",""
"","html-keyboard-response","309","562516","0.0-2.0-4.99-1.99-5.99","aya","[""L""]","","","","","","null","","","null","","","","","","","","","","<p>The experiment will resume in 25 seconds. ",""
"","html-keyboard-response","310","563518","0.0-2.0-4.99-1.99-6.99","aya","[""L""]","","","","","","null","","","null","","","","","","","","","","<p>The experiment will resume in 24 seconds. ",""
"","html-keyboard-response","311","564519","0.0-2.0-4.99-1.99-7.99","aya","[""L""]","","","","","","null","","","null","","","","","","","","","","<p>The experiment will resume in 23 seconds. ",""
"","html-keyboard-response","312","565520","0.0-2.0-4.99-1.99-8.99","aya","[""L""]","","","","","","null","","","null","","","","","","","","","","<p>The experiment will resume in 22 seconds. ",""
"","html-keyboard-response","313","566524","0.0-2.0-4.99-1.99-9.99","aya","[""L""]","","","","","","null","","","null","","","","","","","","","","<p>The experiment will resume in 21 seconds. ",""
"","html-keyboard-response","314","567526","0.0-2.0-4.99-1.99-10.99","aya","[""L""]","","","","","","null","","","null","","","","","","","","","","<p>The experiment will resume in 20 seconds. ",""
"","html-keyboard-response","315","568527","0.0-2.0-4.99-1.99-11.99","aya","[""L""]","","","","","","null","","","null","","","","","","","","","","<p>The experiment will resume in 19 seconds. ",""
"","html-keyboard-response","316","569529","0.0-2.0-4.99-1.99-12.99","aya","[""L""]","","","","","","null","","","null","","","","","","","","","","<p>The experiment will resume in 18 seconds. ",""
"","html-keyboard-response","317","570531","0.0-2.0-4.99-1.99-13.99","aya","[""L""]","","","","","","null","","","null","","","","","","","","","","<p>The experiment will resume in 17 seconds. ",""
"","html-keyboard-response","318","571534","0.0-2.0-4.99-1.99-14.99","aya","[""L""]","","","","","","null","","","null","","","","","","","","","","<p>The experiment will resume in 16 seconds. ",""
"","html-keyboard-response","319","572535","0.0-2.0-4.99-1.99-15.99","aya","[""L""]","","","","","","null","","","null","","","","","","","","","","<p>The experiment will resume in 15 seconds. ",""
"","html-keyboard-response","320","573537","0.0-2.0-4.99-1.99-16.99","aya","[""L""]","","","","","","null","","","null","","","","","","","","","","<p>The experiment will resume in 14 seconds. ",""
"","html-keyboard-response","321","574538","0.0-2.0-4.99-1.99-17.99","aya","[""L""]","","","","","","null","","","null","","","","","","","","","","<p>The experiment will resume in 13 seconds. ",""
"","html-keyboard-response","322","575540","0.0-2.0-4.99-1.99-18.99","aya","[""L""]","","","","","","null","","","null","","","","","","","","","","<p>The experiment will resume in 12 seconds. ",""
"","html-keyboard-response","323","576542","0.0-2.0-4.99-1.99-19.99","aya","[""L""]","","","","","","null","","","null","","","","","","","","","","<p>The experiment will resume in 11 seconds. ",""
"","html-keyboard-response","324","577544","0.0-2.0-4.99-1.99-20.99","aya","[""L""]","","","","","","null","","","null","","","","","","","","","","<p>The experiment will resume in 10 seconds. ",""
"","html-keyboard-response","325","578545","0.0-2.0-4.99-1.99-21.99","aya","[""L""]","","","","","","null","","","null","","","","","","","","","","<p>The experiment will resume in 9 seconds. ",""
"","html-keyboard-response","326","579547","0.0-2.0-4.99-1.99-22.99","aya","[""L""]","","","","","","null","","","null","","","","","","","","","","<p>The experiment will resume in 8 seconds. ",""
"","html-keyboard-response","327","580548","0.0-2.0-4.99-1.99-23.99","aya","[""L""]","","","","","","null","","","null","","","","","","","","","","<p>The experiment will resume in 7 seconds. ",""
"","html-keyboard-response","328","581550","0.0-2.0-4.99-1.99-24.99","aya","[""L""]","","","","","","null","","","null","","","","","","","","","","<p>The experiment will resume in 6 seconds. ",""
"","html-keyboard-response","329","582553","0.0-2.0-4.99-1.99-25.99","aya","[""L""]","","","","","","null","","","null","","","","","","","","","","<p>The experiment will resume in 5 seconds. ",""
"","html-keyboard-response","330","583554","0.0-2.0-4.99-1.99-26.99","aya","[""L""]","","","","","","null","","","null","","","","","","","","","","<p>The experiment will resume in 4 seconds. ",""
"","html-keyboard-response","331","584556","0.0-2.0-4.99-1.99-27.99","aya","[""L""]","","","","","","null","","","null","","","","","","","","","","<p>The experiment will resume in 3 seconds. ",""
"","html-keyboard-response","332","585557","0.0-2.0-4.99-1.99-28.99","aya","[""L""]","","","","","","null","","","null","","","","","","","","","","<p>The experiment will resume in 2 seconds. ",""
"","html-keyboard-response","333","586559","0.0-2.0-4.99-1.99-29.99","aya","[""L""]","","","","","","null","","","null","","","","","","","","","","<p>The experiment will resume in 1 seconds. ",""
"","psychophysics","334","590125","0.0-2.0-0.100","aya","[""L""]","","","","","","2862","key","z","z","16.687957943925223","798","448.5","2","0","1","0","0","false","",""
"","psychophysics","335","591132","0.0-2.0-1.100","aya","[""L""]","","","","","","null","key","null","null","16.686423728814727","798","448.5","2","0","1","0","0","","",""
"","psychophysics","336","592143","0.0-2.0-3.100-0.100","aya","[""L""]","","","","","","null","key","null","null","16.68666666666589","798","448.5","2","0","1","0","0","","",""
"","psychophysics","337","597290","0.0-2.0-0.101","aya","[""L""]","","","","","","4442","key","z","z","16.68582410423437","798","448.5","1","1","1","1","0","true","",""
"","psychophysics","338","598300","0.0-2.0-1.101","aya","[""L""]","","","","","","null","key","null","null","16.685783333333287","798","448.5","1","1","1","1","0","","",""
"","psychophysics","339","599309","0.0-2.0-2.101-0.101","aya","[""L""]","","","","","","null","key","null","null","16.68706779661036","798","448.5","1","1","1","1","0","","",""
"","psychophysics","340","602250","0.0-2.0-0.102","aya","[""L""]","","","","","","2236","key","z","z","16.686102857142686","798","448.5","1","1","0","1","0","true","",""
"","psychophysics","341","603259","0.0-2.0-1.102","aya","[""L""]","","","","","","null","key","null","null","16.686900000000605","798","448.5","1","1","0","1","0","","",""
"","psychophysics","342","604269","0.0-2.0-2.102-0.102","aya","[""L""]","","","","","","null","key","null","null","16.686898305084778","798","448.5","1","1","0","1","0","","",""
"","psychophysics","343","615987","0.0-2.0-0.103","aya","[""L""]","","","","","","11013","key","z","z","16.685874643874723","798","448.5","1","0","0","1","1","true","",""
"","psychophysics","344","616994","0.0-2.0-1.103","aya","[""L""]","","","","","","null","key","null","null","16.6853050847451","798","448.5","1","0","0","1","1","","",""
"","psychophysics","345","618005","0.0-2.0-2.103-0.103","aya","[""L""]","","","","","","null","key","null","null","16.686999999999536","798","448.5","1","0","0","1","1","","",""
"","psychophysics","346","620226","0.0-2.0-0.104","aya","[""L""]","","","","","","1517","key","m","m","16.685848484848535","798","448.5","2","1","0","1","1","true","",""
"","psychophysics","347","621233","0.0-2.0-1.104","aya","[""L""]","","","","","","null","key","null","null","16.685728813559052","798","448.5","2","1","0","1","1","","",""
"","psychophysics","348","622244","0.0-2.0-2.104-0.104","aya","[""L""]","","","","","","null","key","null","null","16.68584999999924","798","448.5","2","1","0","1","1","","",""
"","psychophysics","349","623553","0.0-2.0-0.105","aya","[""L""]","","","","","","605","key","z","z","16.686571428570414","798","448.5","2","1","0","0","0","false","",""
"","psychophysics","350","624564","0.0-2.0-1.105","aya","[""L""]","","","","","","null","key","null","null","16.686533333333987","798","448.5","2","1","0","0","0","","",""
"","psychophysics","351","625572","0.0-2.0-3.105-0.105","aya","[""L""]","","","","","","null","key","null","null","16.686728813559196","798","448.5","2","1","0","0","0","","",""
"","psychophysics","352","628685","0.0-2.0-0.106","aya","[""L""]","","","","","","2409","key","m","m","16.68623655913986","798","448.5","1","0","1","0","1","false","",""
"","psychophysics","353","629693","0.0-2.0-1.106","aya","[""L""]","","","","","","null","key","null","null","16.685576271186818","798","448.5","1","0","1","0","1","","",""
"","psychophysics","354","630704","0.0-2.0-3.106-0.106","aya","[""L""]","","","","","","null","key","null","null","16.686349999999706","798","448.5","1","0","1","0","1","","",""
"","psychophysics","355","632356","0.0-2.0-0.107","aya","[""L""]","","","","","","948","key","m","m","16.68660204081644","798","448.5","2","1","1","1","0","true","",""
"","psychophysics","356","633364","0.0-2.0-1.107","aya","[""L""]","","","","","","null","key","null","null","16.685067796610074","798","448.5","2","1","1","1","0","","",""
"","psychophysics","357","634374","0.0-2.0-2.107-0.107","aya","[""L""]","","","","","","null","key","null","null","16.68713333333338","798","448.5","2","1","1","1","0","","",""
"","psychophysics","358","637081","0.0-2.0-0.108","aya","[""L""]","","","","","","2003","key","m","m","16.6855031055903","798","448.5","2","0","0","1","0","true","",""
"","psychophysics","359","638088","0.0-2.0-1.108","aya","[""L""]","","","","","","null","key","null","null","16.68500000000063","798","448.5","2","0","0","1","0","","",""
"","psychophysics","360","639098","0.0-2.0-2.108-0.108","aya","[""L""]","","","","","","null","key","null","null","16.68676666666676","798","448.5","2","0","0","1","0","","",""
"","psychophysics","361","641201","0.0-2.0-0.109","aya","[""L""]","","","","","","1399","key","m","m","16.685640000000596","798","448.5","2","1","1","1","1","true","",""
"","psychophysics","362","642208","0.0-2.0-1.109","aya","[""L""]","","","","","","null","key","null","null","16.685491525422055","798","448.5","2","1","1","1","1","","",""
"","psychophysics","363","643218","0.0-2.0-2.109-0.109","aya","[""L""]","","","","","","null","key","null","null","16.685866666666698","798","448.5","2","1","1","1","1","","",""
"","psychophysics","364","644804","0.0-2.0-0.110","aya","[""L""]","","","","","","882","key","z","z","16.68541489361706","798","448.5","1","1","0","1","1","true","",""
"","psychophysics","365","645811","0.0-2.0-1.110","aya","[""L""]","","","","","","null","key","null","null","16.6864406779661","798","448.5","1","1","0","1","1","","",""
"","psychophysics","366","646822","0.0-2.0-2.110-0.110","aya","[""L""]","","","","","","null","key","null","null","16.68620000000034","798","448.5","1","1","0","1","1","","",""
"","psychophysics","367","648913","0.0-2.0-0.111","aya","[""L""]","","","","","","1387","key","m","m","16.685959677419422","798","448.5","1","1","0","0","0","false","",""
"","psychophysics","368","649920","0.0-2.0-1.111","aya","[""L""]","","","","","","null","key","null","null","16.685372881354542","798","448.5","1","1","0","0","0","","",""
"","psychophysics","369","650929","0.0-2.0-3.111-0.111","aya","[""L""]","","","","","","null","key","null","null","16.685899999999673","798","448.5","1","1","0","0","0","","",""
"","psychophysics","370","653105","0.0-2.0-0.112","aya","[""L""]","","","","","","1472","key","m","m","16.68525581395293","798","448.5","2","0","1","1","1","true","",""
"","psychophysics","371","654114","0.0-2.0-1.112","aya","[""L""]","","","","","","null","key","null","null","16.687000000001476","798","448.5","2","0","1","1","1","","",""
"","psychophysics","372","655123","0.0-2.0-2.112-0.112","aya","[""L""]","","","","","","null","key","null","null","16.684966101693938","798","448.5","2","0","1","1","1","","",""
"","psychophysics","373","657513","0.0-2.0-0.113","aya","[""L""]","","","","","","1686","key","z","z","16.687359154929446","798","448.5","1","0","1","1","0","true","",""
"","psychophysics","374","658522","0.0-2.0-1.113","aya","[""L""]","","","","","","null","key","null","null","16.6862166666678","798","448.5","1","0","1","1","0","","",""
"","psychophysics","375","659530","0.0-2.0-2.113-0.113","aya","[""L""]","","","","","","null","key","null","null","16.685186440679562","798","448.5","1","0","1","1","0","","",""
"","psychophysics","376","661489","0.0-2.0-0.114","aya","[""L""]","","","","","","1256","key","m","m","16.686213675212777","798","448.5","1","0","0","0","1","false","",""
"","psychophysics","377","662497","0.0-2.0-1.114","aya","[""L""]","","","","","","null","key","null","null","16.684932203389216","798","448.5","1","0","0","0","1","","",""
"","psychophysics","378","663508","0.0-2.0-3.114-0.114","aya","[""L""]","","","","","","null","key","null","null","16.686366666667162","798","448.5","1","0","0","0","1","","",""
"","psychophysics","379","665277","0.0-2.0-0.115","aya","[""L""]","","","","","","1066","key","m","m","16.68627619047627","798","448.5","2","0","0","1","1","true","",""
"","psychophysics","380","666284","0.0-2.0-1.115","aya","[""L""]","","","","","","null","key","null","null","16.686220338984423","798","448.5","2","0","0","1","1","","",""
"","psychophysics","381","667295","0.0-2.0-2.115-0.115","aya","[""L""]","","","","","","null","key","null","null","16.68666666666589","798","448.5","2","0","0","1","1","","",""
"","psychophysics","382","669137","0.0-2.0-0.116","aya","[""L""]","","","","","","1138","key","z","z","16.686082568807834","798","448.5","1","1","0","1","1","true","",""
"","psychophysics","383","670149","0.0-2.0-1.116","aya","[""L""]","","","","","","null","key","null","null","16.68693333333164","798","448.5","1","1","0","1","1","","",""
"","psychophysics","384","671157","0.0-2.0-2.116-0.116","aya","[""L""]","","","","","","null","key","null","null","16.68696610169422","798","448.5","1","1","0","1","1","","",""
"","psychophysics","385","672729","0.0-2.0-0.117","aya","[""L""]","","","","","","869","key","z","z","16.687053763441572","798","448.5","1","1","1","1","0","true","",""
"","psychophysics","386","673738","0.0-2.0-1.117","aya","[""L""]","","","","","","null","key","null","null","16.68670000000081","798","448.5","1","1","1","1","0","","",""
"","psychophysics","387","674747","0.0-2.0-2.117-0.117","aya","[""L""]","","","","","","null","key","null","null","16.686694915254474","798","448.5","1","1","1","1","0","","",""
"","psychophysics","388","676009","0.0-2.0-0.118","aya","[""L""]","","","","","","558","key","m","m","16.686106666666454","798","448.5","2","1","1","1","1","true","",""
"","psychophysics","389","677017","0.0-2.0-1.118","aya","[""L""]","","","","","","null","key","null","null","16.685576271186818","798","448.5","2","1","1","1","1","","",""
"","psychophysics","390","678026","0.0-2.0-2.118-0.118","aya","[""L""]","","","","","","null","key","null","null","16.68693333333358","798","448.5","2","1","1","1","1","","",""
"","psychophysics","391","679427","0.0-2.0-0.119","aya","[""L""]","","","","","","697","key","z","z","16.68622891566329","798","448.5","1","1","1","1","0","true","",""
"","psychophysics","392","680434","0.0-2.0-1.119","aya","[""L""]","","","","","","null","key","null","null","16.685067796610074","798","448.5","1","1","1","1","0","","",""
"","psychophysics","393","681445","0.0-2.0-2.119-0.119","aya","[""L""]","","","","","","null","key","null","null","16.687466666667024","798","448.5","1","1","1","1","0","","",""
"","psychophysics","394","682817","0.0-2.0-0.120","aya","[""L""]","","","","","","668","key","z","z","16.685987654320297","798","448.5","1","1","0","1","0","true","",""
"","psychophysics","395","683824","0.0-2.0-1.120","aya","[""L""]","","","","","","null","key","null","null","16.685779661017122","798","448.5","1","1","0","1","0","","",""
"","psychophysics","396","684833","0.0-2.0-2.120-0.120","aya","[""L""]","","","","","","null","key","null","null","16.686916666668065","798","448.5","1","1","0","1","0","","",""
"","psychophysics","397","686153","0.0-2.0-0.121","aya","[""L""]","","","","","","616","key","z","z","16.686000000000394","798","448.5","1","1","0","1","0","true","",""
"","psychophysics","398","687160","0.0-2.0-1.121","aya","[""L""]","","","","","","null","key","null","null","16.685203389830935","798","448.5","1","1","0","1","0","","",""
"","psychophysics","399","688170","0.0-2.0-2.121-0.121","aya","[""L""]","","","","","","null","key","null","null","16.68683333333271","798","448.5","1","1","0","1","0","","",""
"","psychophysics","400","689513","0.0-2.0-0.122","aya","[""L""]","","","","","","639","key","m","m","16.686797468354218","798","448.5","2","1","0","1","0","true","",""
"","psychophysics","401","690522","0.0-2.0-1.122","aya","[""L""]","","","","","","null","key","null","null","16.686733333331844","798","448.5","2","1","0","1","0","","",""
"","psychophysics","402","691530","0.0-2.0-2.122-0.122","aya","[""L""]","","","","","","null","key","null","null","16.685966101696053","798","448.5","2","1","0","1","0","","",""
"","psychophysics","403","692876","0.0-2.0-0.123","aya","[""L""]","","","","","","642","key","z","z","16.686800000000222","798","448.5","1","1","0","1","1","true","",""
"","psychophysics","404","693883","0.0-2.0-1.123","aya","[""L""]","","","","","","null","key","null","null","16.686355932203313","798","448.5","1","1","0","1","1","","",""
"","psychophysics","405","694894","0.0-2.0-2.123-0.123","aya","[""L""]","","","","","","null","key","null","null","16.687183333333813","798","448.5","1","1","0","1","1","","",""
"","psychophysics","406","696537","0.0-2.0-0.124","aya","[""L""]","","","","","","939","key","m","m","16.68647422680401","798","448.5","2","1","0","1","1","true","",""
"","psychophysics","407","697547","0.0-2.0-1.124","aya","[""L""]","","","","","","null","key","null","null","16.686416666667597","798","448.5","2","1","0","1","1","","",""
"","psychophysics","408","698555","0.0-2.0-2.124-0.124","aya","[""L""]","","","","","","null","key","null","null","16.68684745762671","798","448.5","2","1","0","1","1","","",""
"","psychophysics","409","699777","0.0-2.0-0.125","aya","[""L""]","","","","","","519","key","z","z","16.686444444444433","798","448.5","1","1","1","1","1","true","",""
"","psychophysics","410","700785","0.0-2.0-1.125","aya","[""L""]","","","","","","null","key","null","null","16.68669999999887","798","448.5","1","1","1","1","1","","",""
"","psychophysics","411","701793","0.0-2.0-2.125-0.125","aya","[""L""]","","","","","","null","key","null","null","16.687203389831218","798","448.5","1","1","1","1","1","","",""
"","psychophysics","412","703177","0.0-2.0-0.126","aya","[""L""]","","","","","","679","key","z","z","16.686573170731695","798","448.5","1","1","1","1","1","true","",""
"","psychophysics","413","704188","0.0-2.0-1.126","aya","[""L""]","","","","","","null","key","null","null","16.68631666666673","798","448.5","1","1","1","1","1","","",""
"","psychophysics","414","705196","0.0-2.0-2.126-0.126","aya","[""L""]","","","","","","null","key","null","null","16.685932203389356","798","448.5","1","1","1","1","1","","",""
"","psychophysics","415","706491","0.0-2.0-0.127","aya","[""L""]","","","","","","592","key","m","m","16.686571428571924","798","448.5","2","1","1","1","1","true","",""
"","psychophysics","416","707498","0.0-2.0-1.127","aya","[""L""]","","","","","","null","key","null","null","16.685881355931286","798","448.5","2","1","1","1","1","","",""
"","psychophysics","417","708510","0.0-2.0-2.127-0.127","aya","[""L""]","","","","","","null","key","null","null","16.68695000000104","798","448.5","2","1","1","1","1","","",""
"","psychophysics","418","709729","0.0-2.0-0.128","aya","[""L""]","","","","","","515","key","z","z","16.686027777778992","798","448.5","1","0","0","1","0","true","",""
"","psychophysics","419","710736","0.0-2.0-1.128","aya","[""L""]","","","","","","null","key","null","null","16.686186440679702","798","448.5","1","0","0","1","0","","",""
"","psychophysics","420","711747","0.0-2.0-2.128-0.128","aya","[""L""]","","","","","","null","key","null","null","16.687300000000203","798","448.5","1","0","0","1","0","","",""
"","psychophysics","421","713089","0.0-2.0-0.129","aya","[""L""]","","","","","","638","key","m","m","16.684734177214235","798","448.5","2","0","1","1","0","true","",""
"","psychophysics","422","714099","0.0-2.0-1.129","aya","[""L""]","","","","","","null","key","null","null","16.687000000001476","798","448.5","2","0","1","1","0","","",""
"","psychophysics","423","715107","0.0-2.0-2.129-0.129","aya","[""L""]","","","","","","null","key","null","null","16.686728813559196","798","448.5","2","0","1","1","0","","",""
"","psychophysics","424","716420","0.0-2.0-0.130","aya","[""L""]","","","","","","608","key","m","m","16.686371794870446","798","448.5","1","0","1","0","1","false","",""
"","psychophysics","425","717427","0.0-2.0-1.130","aya","[""L""]","","","","","","null","key","null","null","16.686067796610217","798","448.5","1","0","1","0","1","","",""
"","psychophysics","426","718438","0.0-2.0-3.130-0.130","aya","[""L""]","","","","","","null","key","null","null","16.68601666666606","798","448.5","1","0","1","0","1","","",""
"","psychophysics","427","719873","0.0-2.0-0.131","aya","[""L""]","","","","","","732","key","m","m","16.6858470588224","798","448.5","1","1","1","0","0","false","",""
"","psychophysics","428","720882","0.0-2.0-1.131","aya","[""L""]","","","","","","null","key","null","null","16.6864406779661","798","448.5","1","1","1","0","0","","",""
"","psychophysics","429","721892","0.0-2.0-3.131-0.131","aya","[""L""]","","","","","","null","key","null","null","16.68701666666699","798","448.5","1","1","1","0","0","","",""
"","psychophysics","430","723217","0.0-2.0-0.132","aya","[""L""]","","","","","","621","key","m","m","16.685730769230315","798","448.5","1","1","1","0","1","false","",""
"","psychophysics","431","724228","0.0-2.0-1.132","aya","[""L""]","","","","","","null","key","null","null","16.686733333333784","798","448.5","1","1","1","0","1","","",""
"","psychophysics","432","725236","0.0-2.0-3.132-0.132","aya","[""L""]","","","","","","null","key","null","null","16.68491525423784","798","448.5","1","1","1","0","1","","",""
"","psychophysics","433","726457","0.0-2.0-0.133","aya","[""L""]","","","","","","518","key","m","m","16.686833333334008","798","448.5","2","1","0","1","1","true","",""
"","psychophysics","434","727465","0.0-2.0-1.133","aya","[""L""]","","","","","","null","key","null","null","16.686533333332044","798","448.5","2","1","0","1","1","","",""
"","psychophysics","435","728473","0.0-2.0-2.133-0.133","aya","[""L""]","","","","","","null","key","null","null","16.68627118644052","798","448.5","2","1","0","1","1","","",""
"","psychophysics","436","730603","0.0-2.0-0.134","aya","[""L""]","","","","","","1426","key","z","z","16.686937007874317","798","448.5","2","1","1","0","1","false","",""
"","psychophysics","437","731610","0.0-2.0-1.134","aya","[""L""]","","","","","","null","key","null","null","16.685966101694078","798","448.5","2","1","1","0","1","","",""
"","psychophysics","438","732622","0.0-2.0-3.134-0.134","aya","[""L""]","","","","","","null","key","null","null","16.686633333332914","798","448.5","2","1","1","0","1","","",""
"","psychophysics","439","734625","0.0-2.0-0.135","aya","[""L""]","","","","","","1300","key","z","z","16.68642857142904","798","448.5","1","1","0","1","1","true","",""
"","psychophysics","440","735633","0.0-2.0-1.135","aya","[""L""]","","","","","","null","key","null","null","16.686305084745243","798","448.5","1","1","0","1","1","","",""
"","psychophysics","441","736642","0.0-2.0-2.135-0.135","aya","[""L""]","","","","","","null","key","null","null","16.68668333333335","798","448.5","1","1","0","1","1","","",""
"","psychophysics","442","738829","0.0-2.0-0.136","aya","[""L""]","","","","","","1483","key","m","m","16.685969230769057","798","448.5","1","0","1","0","0","false","",""
"","psychophysics","443","739837","0.0-2.0-1.136","aya","[""L""]","","","","","","null","key","null","null","16.685627118644888","798","448.5","1","0","1","0","0","","",""
"","psychophysics","444","740847","0.0-2.0-3.136-0.136","aya","[""L""]","","","","","","null","key","null","null","16.686483333333552","798","448.5","1","0","1","0","0","","",""
"","psychophysics","445","742178","0.0-2.0-0.137","aya","[""L""]","","","","","","626","key","z","z","16.685769230770603","798","448.5","1","1","0","1","1","true","",""
"","psychophysics","446","743185","0.0-2.0-1.137","aya","[""L""]","","","","","","null","key","null","null","16.686566666666963","798","448.5","1","1","0","1","1","","",""
"","psychophysics","447","744193","0.0-2.0-2.137-0.137","aya","[""L""]","","","","","","null","key","null","null","16.6857966101685","798","448.5","1","1","0","1","1","","",""
"","psychophysics","448","745441","0.0-2.0-0.138","aya","[""L""]","","","","","","544","key","m","m","16.685256756757184","798","448.5","2","1","1","1","1","true","",""
"","psychophysics","449","746449","0.0-2.0-1.138","aya","[""L""]","","","","","","null","key","null","null","16.686694915254474","798","448.5","2","1","1","1","1","","",""
"","psychophysics","450","747457","0.0-2.0-2.138-0.138","aya","[""L""]","","","","","","null","key","null","null","16.68613333333439","798","448.5","2","1","1","1","1","","",""
"","psychophysics","451","748657","0.0-2.0-0.139","aya","[""L""]","","","","","","496","key","z","z","16.68650704225473","798","448.5","2","0","0","0","1","false","",""
"","psychophysics","452","749664","0.0-2.0-1.139","aya","[""L""]","","","","","","null","key","null","null","16.685220338984283","798","448.5","2","0","0","0","1","","",""
"","psychophysics","453","750675","0.0-2.0-3.139-0.139","aya","[""L""]","","","","","","null","key","null","null","16.686883333333146","798","448.5","2","0","0","0","1","","",""
"","psychophysics","454","752081","0.0-2.0-0.140","aya","[""L""]","","","","","","703","key","m","m","16.684987951807834","798","448.5","2","0","1","1","1","true","",""
"","psychophysics","455","753088","0.0-2.0-1.140","aya","[""L""]","","","","","","null","key","null","null","16.685423728812612","798","448.5","2","0","1","1","1","","",""
"","psychophysics","456","754097","0.0-2.0-2.140-0.140","aya","[""L""]","","","","","","null","key","null","null","16.68676666666676","798","448.5","2","0","1","1","1","","",""
"","psychophysics","457","755817","0.0-2.0-0.141","aya","[""L""]","","","","","","1017","key","m","m","16.686156862744074","798","448.5","1","1","0","0","1","false","",""
"","psychophysics","458","756826","0.0-2.0-1.141","aya","[""L""]","","","","","","null","key","null","null","16.685966101694078","798","448.5","1","1","0","0","1","","",""
"","psychophysics","459","757835","0.0-2.0-3.141-0.141","aya","[""L""]","","","","","","null","key","null","null","16.68670000000081","798","448.5","1","1","0","0","1","","",""
"","psychophysics","460","759113","0.0-2.0-0.142","aya","[""L""]","","","","","","574","key","z","z","16.68562666666694","798","448.5","1","1","1","1","1","true","",""
"","psychophysics","461","760121","0.0-2.0-1.142","aya","[""L""]","","","","","","null","key","null","null","16.685766666665828","798","448.5","1","1","1","1","1","","",""
"","psychophysics","462","761129","0.0-2.0-2.142-0.142","aya","[""L""]","","","","","","null","key","null","null","16.68540677966124","798","448.5","1","1","1","1","1","","",""
"","psychophysics","463","762557","0.0-2.0-0.143","aya","[""L""]","","","","","","724","key","z","z","16.686517647059414","798","448.5","1","1","1","1","1","true","",""
"","psychophysics","464","763564","0.0-2.0-1.143","aya","[""L""]","","","","","","null","key","null","null","16.686288135593866","798","448.5","1","1","1","1","1","","",""
"","psychophysics","465","764574","0.0-2.0-2.143-0.143","aya","[""L""]","","","","","","null","key","null","null","16.686549999999503","798","448.5","1","1","1","1","1","","",""
"","psychophysics","466","765877","0.0-2.0-0.144","aya","[""L""]","","","","","","599","key","z","z","16.686571428571924","798","448.5","2","0","1","0","0","false","",""
"","psychophysics","467","766884","0.0-2.0-1.144","aya","[""L""]","","","","","","null","key","null","null","16.685135593221492","798","448.5","2","0","1","0","0","","",""
"","psychophysics","468","767895","0.0-2.0-3.144-0.144","aya","[""L""]","","","","","","null","key","null","null","16.687166666668297","798","448.5","2","0","1","0","0","","",""
"","psychophysics","469","769249","0.0-2.0-0.145","aya","[""L""]","","","","","","650","key","z","z","16.685687499999766","798","448.5","2","0","0","0","1","false","",""
"","psychophysics","470","770256","0.0-2.0-1.145","aya","[""L""]","","","","","","null","key","null","null","16.686033898305496","798","448.5","2","0","0","0","1","","",""
"","psychophysics","471","771265","0.0-2.0-3.145-0.145","aya","[""L""]","","","","","","null","key","null","null","16.686466666668032","798","448.5","2","0","0","0","1","","",""
"","psychophysics","472","772585","0.0-2.0-0.146","aya","[""L""]","","","","","","616","key","m","m","16.685397435897567","798","448.5","2","0","0","1","0","true","",""
"","psychophysics","473","773593","0.0-2.0-1.146","aya","[""L""]","","","","","","null","key","null","null","16.685830508475192","798","448.5","2","0","0","1","0","","",""
"","psychophysics","474","774603","0.0-2.0-2.146-0.146","aya","[""L""]","","","","","","null","key","null","null","16.687116666665922","798","448.5","2","0","0","1","0","","",""
"","psychophysics","475","776009","0.0-2.0-0.147","aya","[""L""]","","","","","","703","key","m","m","16.686084337350184","798","448.5","1","0","1","0","1","false","",""
"","psychophysics","476","777017","0.0-2.0-1.147","aya","[""L""]","","","","","","null","key","null","null","16.68657627118696","798","448.5","1","0","1","0","1","","",""
"","psychophysics","477","778026","0.0-2.0-3.147-0.147","aya","[""L""]","","","","","","null","key","null","null","16.686599999999938","798","448.5","1","0","1","0","1","","",""
"","psychophysics","478","778817","0.0-2.0-0.148","aya","[""L""]","","","","","","88","key","z","z","16.68536956521743","798","448.5","1","1","0","1","1","true","",""
"","psychophysics","479","779826","0.0-2.0-1.148","aya","[""L""]","","","","","","null","key","null","null","16.686916666668065","798","448.5","1","1","0","1","1","","",""
"","psychophysics","480","780834","0.0-2.0-2.148-0.148","aya","[""L""]","","","","","","null","key","null","null","16.685864406779913","798","448.5","1","1","0","1","1","","",""
"","psychophysics","481","785299","0.0-2.0-0.149","aya","[""L""]","","","","","","3761","key","m","m","16.686029962546975","798","448.5","2","1","1","1","0","true","",""
"","psychophysics","482","786306","0.0-2.0-1.149","aya","[""L""]","","","","","","null","key","null","null","16.685525423728752","798","448.5","2","1","1","1","0","","",""
"","psychophysics","483","787318","0.0-2.0-2.149-0.149","aya","[""L""]","","","","","","null","key","null","null","16.686999999999536","798","448.5","2","1","1","1","0","","",""
"","psychophysics","484","789081","0.0-2.0-0.150","aya","[""L""]","","","","","","1060","key","m","m","16.685624999999373","798","448.5","1","0","1","1","0","false","",""
"","psychophysics","485","790089","0.0-2.0-1.150","aya","[""L""]","","","","","","null","key","null","null","16.686099999999474","798","448.5","1","0","1","1","0","","",""
"","psychophysics","486","791098","0.0-2.0-3.150-0.150","aya","[""L""]","","","","","","null","key","null","null","16.68588135593326","798","448.5","1","0","1","1","0","","",""
"","psychophysics","487","792977","0.0-2.0-0.151","aya","[""L""]","","","","","","1175","key","m","m","16.686526785713795","798","448.5","2","0","0","1","1","true","",""
"","psychophysics","488","793984","0.0-2.0-1.151","aya","[""L""]","","","","","","null","key","null","null","16.686186440679702","798","448.5","2","0","0","1","1","","",""
"","psychophysics","489","794993","0.0-2.0-2.151-0.151","aya","[""L""]","","","","","","null","key","null","null","16.687166666666357","798","448.5","2","0","0","1","1","","",""
"","psychophysics","490","798137","0.0-2.0-0.152","aya","[""L""]","","","","","","2440","key","m","m","16.685871657754173","798","448.5","2","1","0","1","1","true","",""
"","psychophysics","491","799147","0.0-2.0-1.152","aya","[""L""]","","","","","","null","key","null","null","16.68693333333358","798","448.5","2","1","0","1","1","","",""
"","psychophysics","492","800156","0.0-2.0-2.152-0.152","aya","[""L""]","","","","","","null","key","null","null","16.686830508475335","798","448.5","2","1","0","1","1","","",""
"","psychophysics","493","803545","0.0-2.0-0.153","aya","[""L""]","","","","","","2685","key","z","z","16.685861386138587","798","448.5","1","1","0","1","0","true","",""
"","psychophysics","494","804553","0.0-2.0-1.153","aya","[""L""]","","","","","","null","key","null","null","16.686366666667162","798","448.5","1","1","0","1","0","","",""
"","psychophysics","495","805561","0.0-2.0-2.153-0.153","aya","[""L""]","","","","","","null","key","null","null","16.685949152542705","798","448.5","1","1","0","1","0","","",""
"","psychophysics","496","806977","0.0-2.0-0.154","aya","[""L""]","","","","","","712","key","m","m","16.68680952380999","798","448.5","2","1","0","1","0","true","",""
"","psychophysics","497","807984","0.0-2.0-1.154","aya","[""L""]","","","","","","null","key","null","null","16.6869322033895","798","448.5","2","1","0","1","0","","",""
"","psychophysics","498","808994","0.0-2.0-2.154-0.154","aya","[""L""]","","","","","","null","key","null","null","16.68723333333231","798","448.5","2","1","0","1","0","","",""
"","psychophysics","499","810962","0.0-2.0-0.155","aya","[""L""]","","","","","","1265","key","z","z","16.68619658119686","798","448.5","1","0","0","1","1","true","",""
"","psychophysics","500","811968","0.0-2.0-1.155","aya","[""L""]","","","","","","null","key","null","null","16.685813559321844","798","448.5","1","0","0","1","1","","",""
"","psychophysics","501","812979","0.0-2.0-2.155-0.155","aya","[""L""]","","","","","","null","key","null","null","16.686366666667162","798","448.5","1","0","0","1","1","","",""
"","psychophysics","502","815584","0.0-2.0-0.156","aya","[""L""]","","","","","","1901","key","m","m","16.68448387096756","798","448.5","1","0","0","0","0","false","",""
"","psychophysics","503","816592","0.0-2.0-1.156","aya","[""L""]","","","","","","null","key","null","null","16.685728813559052","798","448.5","1","0","0","0","0","","",""
"","psychophysics","504","817602","0.0-2.0-3.156-0.156","aya","[""L""]","","","","","","null","key","null","null","16.687383333333614","798","448.5","1","0","0","0","0","","",""
"","psychophysics","505","819497","0.0-2.0-0.157","aya","[""L""]","","","","","","1192","key","m","m","16.685821428571735","798","448.5","1","1","0","0","1","false","",""
"","psychophysics","506","820505","0.0-2.0-1.157","aya","[""L""]","","","","","","null","key","null","null","16.687049999999967","798","448.5","1","1","0","0","1","","",""
"","psychophysics","507","821515","0.0-2.0-3.157-0.157","aya","[""L""]","","","","","","null","key","null","null","16.685118644068144","798","448.5","1","1","0","0","1","","",""
"","psychophysics","508","823137","0.0-2.0-0.158","aya","[""L""]","","","","","","920","key","z","z","16.68666666666589","798","448.5","1","1","1","1","1","true","",""
"","psychophysics","509","824144","0.0-2.0-1.158","aya","[""L""]","","","","","","null","key","null","null","16.687366666668094","798","448.5","1","1","1","1","1","","",""
"","psychophysics","510","825153","0.0-2.0-2.158-0.158","aya","[""L""]","","","","","","null","key","null","null","16.685220338984283","798","448.5","1","1","1","1","1","","",""
"","psychophysics","511","826641","0.0-2.0-0.159","aya","[""L""]","","","","","","784","key","m","m","16.68642045454577","798","448.5","2","1","1","0","1","true","",""
"","psychophysics","512","827649","0.0-2.0-1.159","aya","[""L""]","","","","","","null","key","null","null","16.68686666666569","798","448.5","2","1","1","0","1","","",""
"","psychophysics","513","828657","0.0-2.0-2.159-0.159","aya","[""L""]","","","","","","null","key","null","null","16.685966101696053","798","448.5","2","1","1","0","1","","",""
"","psychophysics","514","830066","0.0-2.0-0.160","aya","[""L""]","","","","","","706","key","z","z","16.685571428571297","798","448.5","1","1","1","1","1","true","",""
"","psychophysics","515","831073","0.0-2.0-1.160","aya","[""L""]","","","","","","null","key","null","null","16.68394915254242","798","448.5","1","1","1","1","1","","",""
"","psychophysics","516","832085","0.0-2.0-2.160-0.160","aya","[""L""]","","","","","","null","key","null","null","16.686633333332914","798","448.5","1","1","1","1","1","","",""
"","psychophysics","517","833945","0.0-2.0-0.161","aya","[""L""]","","","","","","1157","key","z","z","16.685681818182243","798","448.5","2","0","1","0","1","false","",""
"","psychophysics","518","834955","0.0-2.0-1.161","aya","[""L""]","","","","","","null","key","null","null","16.68739999999913","798","448.5","2","0","1","0","1","","",""
"","psychophysics","519","835964","0.0-2.0-3.161-0.161","aya","[""L""]","","","","","","null","key","null","null","16.685186440677587","798","448.5","2","0","1","0","1","","",""
"","psychophysics","520","837384","0.0-2.0-0.162","aya","[""L""]","","","","","","718","key","z","z","16.686154761904618","798","448.5","2","1","0","0","1","false","",""
"","psychophysics","521","838393","0.0-2.0-1.162","aya","[""L""]","","","","","","null","key","null","null","16.686716666666324","798","448.5","2","1","0","0","1","","",""
"","psychophysics","522","839401","0.0-2.0-3.162-0.162","aya","[""L""]","","","","","","null","key","null","null","16.685271186440378","798","448.5","2","1","0","0","1","","",""
"","psychophysics","523","840800","0.0-2.0-0.163","aya","[""L""]","","","","","","696","key","m","m","16.68592771084233","798","448.5","1","1","0","1","0","false","",""
"","psychophysics","524","841807","0.0-2.0-1.163","aya","[""L""]","","","","","","null","key","null","null","16.686542372880268","798","448.5","1","1","0","1","0","","",""
"","psychophysics","525","842817","0.0-2.0-3.163-0.163","aya","[""L""]","","","","","","null","key","null","null","16.686449999998633","798","448.5","1","1","0","1","0","","",""
"","psychophysics","526","844283","0.0-2.0-0.164","aya","[""L""]","","","","","","764","key","z","z","16.6859310344825","798","448.5","1","1","1","1","1","true","",""
"","psychophysics","527","845289","0.0-2.0-1.164","aya","[""L""]","","","","","","null","key","null","null","16.685898305084635","798","448.5","1","1","1","1","1","","",""
"","psychophysics","528","846295","0.0-2.0-2.164-0.164","aya","[""L""]","","","","","","null","key","null","null","16.68723728813594","798","448.5","1","1","1","1","1","","",""
"","psychophysics","529","847049","0.0-2.0-0.165","aya","[""L""]","","","","","","50","key","z","z","16.686818181817547","798","448.5","1","0","1","0","0","true","",""
"","psychophysics","530","848056","0.0-2.0-1.165","aya","[""L""]","","","","","","null","key","null","null","16.687883333332138","798","448.5","1","0","1","0","0","","",""
"","psychophysics","531","849065","0.0-2.0-2.165-0.165","aya","[""L""]","","","","","","null","key","null","null","16.685644067796265","798","448.5","1","0","1","0","0","","",""
"","psychophysics","532","850680","0.0-2.0-0.166","aya","[""L""]","","","","","","908","key","m","m","16.686458333332364","798","448.5","1","1","0","0","0","false","",""
"","psychophysics","533","851690","0.0-2.0-1.166","aya","[""L""]","","","","","","null","key","null","null","16.6867499999993","798","448.5","1","1","0","0","0","","",""
"","psychophysics","534","852699","0.0-2.0-3.166-0.166","aya","[""L""]","","","","","","null","key","null","null","16.687084745761734","798","448.5","1","1","0","0","0","","",""
"","psychophysics","535","854369","0.0-2.0-0.167","aya","[""L""]","","","","","","967","key","z","z","16.68606060606103","798","448.5","1","0","0","1","1","true","",""
"","psychophysics","536","855378","0.0-2.0-1.167","aya","[""L""]","","","","","","null","key","null","null","16.68668333333335","798","448.5","1","0","0","1","1","","",""
"","psychophysics","537","856386","0.0-2.0-2.167-0.167","aya","[""L""]","","","","","","null","key","null","null","16.686288135591894","798","448.5","1","0","0","1","1","","",""
"","psychophysics","538","859088","0.0-2.0-0.168","aya","[""L""]","","","","","","1999","key","z","z","16.68598136645944","798","448.5","2","1","0","1","1","false","",""
"","psychophysics","539","860100","0.0-2.0-1.168","aya","[""L""]","","","","","","null","key","null","null","16.687250000001708","798","448.5","2","1","0","1","1","","",""
"","psychophysics","540","861108","0.0-2.0-3.168-0.168","aya","[""L""]","","","","","","null","key","null","null","16.686627118643056","798","448.5","2","1","0","1","1","","",""
"","psychophysics","541","862896","0.0-2.0-0.169","aya","[""L""]","","","","","","1084","key","z","z","16.686330188679694","798","448.5","2","1","1","1","0","false","",""
"","psychophysics","542","863904","0.0-2.0-1.169","aya","[""L""]","","","","","","null","key","null","null","16.687166666666357","798","448.5","2","1","1","1","0","","",""
"","psychophysics","543","864913","0.0-2.0-3.169-0.169","aya","[""L""]","","","","","","null","key","null","null","16.68610169491494","798","448.5","2","1","1","1","0","","",""
"","psychophysics","544","866521","0.0-2.0-0.170","aya","[""L""]","","","","","","905","key","m","m","16.686115789474723","798","448.5","2","1","1","1","1","true","",""
"","psychophysics","545","867529","0.0-2.0-1.170","aya","[""L""]","","","","","","null","key","null","null","16.682533333334142","798","448.5","2","1","1","1","1","","",""
"","psychophysics","546","868537","0.0-2.0-2.170-0.170","aya","[""L""]","","","","","","null","key","null","null","16.685813559321844","798","448.5","2","1","1","1","1","","",""
"","psychophysics","547","870179","0.0-2.0-0.171","aya","[""L""]","","","","","","934","key","m","m","16.68645918367274","798","448.5","2","0","0","1","1","true","",""
"","psychophysics","548","871186","0.0-2.0-1.171","aya","[""L""]","","","","","","null","key","null","null","16.685084745763422","798","448.5","2","0","0","1","1","","",""
"","psychophysics","549","872197","0.0-2.0-2.171-0.171","aya","[""L""]","","","","","","null","key","null","null","16.685733333332852","798","448.5","2","0","0","1","1","","",""
"","psychophysics","550","873913","0.0-2.0-0.172","aya","[""L""]","","","","","","1012","key","m","m","16.685722772277533","798","448.5","2","1","0","1","1","true","",""
"","psychophysics","551","874920","0.0-2.0-1.172","aya","[""L""]","","","","","","null","key","null","null","16.68299999999969","798","448.5","2","1","0","1","1","","",""
"","psychophysics","552","875928","0.0-2.0-2.172-0.172","aya","[""L""]","","","","","","null","key","null","null","16.686203389829103","798","448.5","2","1","0","1","1","","",""
"","psychophysics","553","878080","0.0-2.0-0.173","aya","[""L""]","","","","","","1448","key","m","m","16.686250000000655","798","448.5","2","0","1","0","1","true","",""
"","psychophysics","554","879088","0.0-2.0-1.173","aya","[""L""]","","","","","","null","key","null","null","16.686516666666527","798","448.5","2","0","1","0","1","","",""
"","psychophysics","555","880097","0.0-2.0-2.173-0.173","aya","[""L""]","","","","","","null","key","null","null","16.685033898305353","798","448.5","2","0","1","0","1","","",""
"","psychophysics","556","881528","0.0-2.0-0.174","aya","[""L""]","","","","","","729","key","z","z","16.68521176470608","798","448.5","2","0","0","0","1","false","",""
"","psychophysics","557","882535","0.0-2.0-1.174","aya","[""L""]","","","","","","null","key","null","null","16.685932203389356","798","448.5","2","0","0","0","1","","",""
"","psychophysics","558","883545","0.0-2.0-3.174-0.174","aya","[""L""]","","","","","","null","key","null","null","16.687049999999967","798","448.5","2","0","0","0","1","","",""
"","psychophysics","559","885448","0.0-2.0-0.175","aya","[""L""]","","","","","","1200","key","m","m","16.68591150442505","798","448.5","1","0","0","0","1","false","",""
"","psychophysics","560","886455","0.0-2.0-1.175","aya","[""L""]","","","","","","null","key","null","null","16.685644067796265","798","448.5","1","0","0","0","1","","",""
"","psychophysics","561","887465","0.0-2.0-3.175-0.175","aya","[""L""]","","","","","","null","key","null","null","16.686250000000776","798","448.5","1","0","0","0","1","","",""
"","psychophysics","562","888776","0.0-2.0-0.176","aya","[""L""]","","","","","","608","key","m","m","16.686298701298337","798","448.5","1","0","1","0","0","false","",""
"","psychophysics","563","889784","0.0-2.0-1.176","aya","[""L""]","","","","","","null","key","null","null","16.68678333333422","798","448.5","1","0","1","0","0","","",""
"","psychophysics","564","890793","0.0-2.0-3.176-0.176","aya","[""L""]","","","","","","null","key","null","null","16.686372881354686","798","448.5","1","0","1","0","0","","",""
"","psychophysics","565","892200","0.0-2.0-0.177","aya","[""L""]","","","","","","703","key","z","z","16.686096385542125","798","448.5","2","0","1","0","0","false","",""
"","psychophysics","566","893207","0.0-2.0-1.177","aya","[""L""]","","","","","","null","key","null","null","16.68658333333248","798","448.5","2","0","1","0","0","","",""
"","psychophysics","567","894215","0.0-2.0-3.177-0.177","aya","[""L""]","","","","","","null","key","null","null","16.685576271186818","798","448.5","2","0","1","0","0","","",""
"","psychophysics","568","895875","0.0-2.0-0.178","aya","[""L""]","","","","","","956","key","z","z","16.686151515151554","798","448.5","1","1","0","1","0","true","",""
"","psychophysics","569","896883","0.0-2.0-1.178","aya","[""L""]","","","","","","null","key","null","null","16.686644067796404","798","448.5","1","1","0","1","0","","",""
"","psychophysics","570","897894","0.0-2.0-2.178-0.178","aya","[""L""]","","","","","","null","key","null","null","16.686733333331844","798","448.5","1","1","0","1","0","","",""
"","psychophysics","571","899256","0.0-2.0-0.179","aya","[""L""]","","","","","","659","key","z","z","16.685887500000536","798","448.5","1","1","1","1","1","true","",""
"","psychophysics","572","900264","0.0-2.0-1.179","aya","[""L""]","","","","","","null","key","null","null","16.68658333333442","798","448.5","1","1","1","1","1","","",""
"","psychophysics","573","901273","0.0-2.0-2.179-0.179","aya","[""L""]","","","","","","null","key","null","null","16.68571186440768","798","448.5","1","1","1","1","1","","",""
