subID,trialNum,cntBalance,correct,rt,winner,p1conf,p2conf,p1rslt,p2rslt,
0uk,1,L,true,4981,1,1,1,1,1,
0uk,2,L,true,3162,2,1,1,1,1,
0uk,3,L,false,2632,1,1,1,1,0,
0uk,4,L,true,1705,2,1,0,1,0,
0uk,5,L,true,1734,2,1,0,1,1,
0uk,6,L,false,1558,2,1,1,1,0,
0uk,7,L,false,3964,2,0,0,0,0,
0uk,8,L,true,1960,2,0,1,1,1,
0uk,9,L,false,1221,1,0,1,1,0,
0uk,10,L,false,1822,1,1,0,0,1,
0uk,11,L,false,1971,2,0,1,0,0,
0uk,12,L,true,1151,2,0,0,1,1,
0uk,13,L,true,1488,2,1,0,1,0,
0uk,14,L,false,2333,2,1,1,0,1,
0uk,15,L,false,814,1,0,0,0,0,
0uk,16,L,true,1184,2,1,1,1,1,
0uk,17,L,true,248,2,1,1,1,0,
0uk,18,L,false,534,1,0,1,0,0,
0uk,19,L,false,600,1,1,1,1,0,
0uk,20,L,false,2272,2,1,1,1,0,
0uk,21,L,true,694,2,0,0,0,1,
0uk,22,L,true,719,2,1,0,0,1,
0uk,23,L,true,761,1,1,0,1,1,
0uk,24,L,false,1460,1,0,1,0,0,
0uk,25,L,false,352,2,1,0,1,1,
0uk,26,L,true,397,2,1,0,1,1,
0uk,27,L,false,388,1,0,1,1,1,
0uk,28,L,false,313,2,0,1,1,0,
0uk,29,L,false,248,1,1,1,1,1,
0uk,30,L,false,619,1,0,1,1,0,
0uk,31,L,false,352,2,1,1,0,1,
0uk,32,L,true,27,2,0,0,1,1,
0uk,33,L,true,215,1,0,0,1,0,
0uk,34,L,true,658,2,1,1,1,0,
0uk,35,L,true,248,2,1,1,1,0,
0uk,36,L,true,117,1,1,1,1,1,
0uk,37,L,false,106,2,1,0,1,1,
0uk,38,L,true,454,2,0,1,1,1,
0uk,39,L,false,392,2,0,0,0,0,
0uk,40,L,true,1609,2,1,1,1,1,
0uk,41,L,true,553,2,1,1,0,1,
0uk,42,L,false,288,2,1,1,0,0,
0uk,43,L,false,14,1,1,0,1,1,
0uk,44,L,false,132,2,0,0,0,1,
0uk,45,L,true,498,2,0,1,1,1,
0uk,46,L,false,490,1,1,1,1,1,
0uk,47,L,false,642,1,0,1,1,1,
0uk,48,L,true,3029,2,1,0,1,0,
0uk,49,L,false,2007,2,1,1,1,1,
0uk,50,L,true,1066,1,0,0,1,1,
0uk,51,L,true,474,2,0,0,1,0,
0uk,52,L,true,491,1,1,1,1,1,
0uk,53,L,true,171,2,1,1,1,0,
0uk,54,L,false,85,1,1,0,0,1,
0uk,55,L,true,729,1,1,1,1,1,
0uk,56,L,false,1513,2,0,0,1,0,
0uk,57,L,false,348,1,1,0,1,1,
0uk,58,L,false,367,2,0,0,1,1,
0uk,59,L,true,231,2,0,1,1,0,
0uk,60,L,false,143,1,1,0,1,1,
0uk,61,L,false,192,2,1,1,1,1,
0uk,62,L,true,113,2,0,1,1,1,
0uk,63,L,false,397,2,1,1,1,1,
0uk,64,L,true,452,2,1,0,0,1,
0uk,65,L,true,473,2,1,1,1,1,
0uk,66,L,true,519,2,1,1,0,1,
0uk,67,L,false,232,2,1,0,1,1,
0uk,68,L,false,232,1,0,1,0,0,
0uk,69,L,true,152,1,0,0,1,1,
0uk,70,L,true,89,1,1,1,0,1,
0uk,71,L,false,405,2,1,0,1,1,
0uk,72,L,true,565,2,1,1,1,1,
0uk,73,L,true,1518,2,1,0,1,0,
0uk,74,L,false,960,1,0,1,1,1,
0uk,75,L,true,1344,1,0,0,1,0,
0uk,76,L,false,1896,1,1,0,1,0,
0uk,77,L,true,704,1,0,1,0,1,
0uk,78,L,true,181,1,0,1,1,0,
0uk,79,L,false,351,2,0,1,1,1,
0uk,80,L,false,441,1,0,1,1,0,
0uk,81,L,true,127,1,1,0,1,1,
0uk,82,L,true,188,1,1,1,1,1,
0uk,83,L,false,152,2,0,0,1,1,
0uk,84,L,true,200,2,1,1,0,1,
0uk,85,L,false,257,1,1,1,1,1,
0uk,86,L,false,52,2,0,0,1,1,
0uk,87,L,true,8,2,0,0,0,0,
0uk,88,L,true,1252,1,0,1,1,1,
0uk,89,L,true,124,1,0,1,1,0,
0uk,90,L,true,466,1,1,0,1,1,
brk,brk,brk,brk,brk,brk,brk,brk,brk,brk,
0uk,91,L,false,2394,2,1,1,1,1,
0uk,92,L,false,0,1,0,1,1,1,
0uk,93,L,false,361,2,0,1,0,1,
0uk,94,L,true,216,2,1,1,1,1,
0uk,95,L,false,384,2,0,1,0,1,
0uk,96,L,true,351,2,1,0,1,0,
0uk,97,L,false,15,2,0,0,0,1,
0uk,98,L,false,280,1,0,1,0,1,
0uk,99,L,false,199,2,1,1,1,1,
0uk,100,L,true,70,2,1,0,1,0,
0uk,101,L,true,433,2,1,0,1,0,
0uk,102,L,false,250,1,0,0,1,1,
0uk,103,L,false,288,2,0,0,1,1,
0uk,104,L,false,199,2,1,1,1,1,
0uk,105,L,true,415,1,0,1,0,0,
0uk,106,L,true,161,1,0,1,1,1,
0uk,107,L,false,292,1,0,1,1,1,
0uk,108,L,false,329,1,0,0,0,1,
0uk,109,L,false,284,2,1,0,1,1,
0uk,110,L,true,793,2,0,1,1,0,
0uk,111,L,true,608,2,1,0,1,1,
0uk,112,L,false,233,1,1,0,1,0,
0uk,113,L,false,648,2,0,1,0,0,
0uk,114,L,true,144,2,1,0,1,0,
0uk,115,L,false,52,1,1,1,0,1,
0uk,116,L,false,397,2,1,1,0,1,
0uk,117,L,true,106,2,0,0,0,1,
0uk,118,L,true,442,2,0,1,0,1,
0uk,119,L,false,125,1,1,1,1,1,
0uk,120,L,false,545,2,0,1,0,1,
0uk,121,L,true,442,2,1,1,1,0,
0uk,122,L,false,24,1,1,1,1,0,
0uk,123,L,false,423,2,0,0,0,0,
0uk,124,L,false,208,1,0,1,0,0,
0uk,125,L,true,533,1,1,1,1,1,
0uk,126,L,false,433,2,0,0,1,1,
0uk,127,L,false,350,1,0,0,1,0,
0uk,128,L,false,359,2,1,0,1,1,
0uk,129,L,true,33,1,1,0,1,1,
0uk,130,L,true,153,2,0,1,0,0,
0uk,131,L,true,993,2,1,1,1,1,
0uk,132,L,false,690,2,1,1,1,0,
0uk,133,L,false,110,1,1,0,0,0,
0uk,134,L,true,33,1,1,0,1,1,
0uk,135,L,true,1552,1,0,0,1,0,
0uk,136,L,false,376,2,1,0,1,1,
0uk,137,L,true,473,2,1,1,1,1,
0uk,138,L,false,234,2,1,1,1,1,
0uk,139,L,true,373,2,0,0,0,1,
0uk,140,L,false,94,2,1,0,1,0,
0uk,141,L,false,49,1,1,1,1,1,
0uk,142,L,true,336,1,0,1,0,1,
0uk,143,L,true,2031,1,1,0,1,0,
0uk,144,L,false,799,1,0,1,1,0,
0uk,145,L,false,605,2,0,1,0,1,
0uk,146,L,false,791,1,0,0,1,1,
0uk,147,L,false,198,2,1,0,1,1,
0uk,148,L,false,436,1,0,0,0,1,
0uk,149,L,true,402,2,1,0,1,1,
0uk,150,L,true,409,2,1,0,1,1,
0uk,151,L,true,154,2,1,0,1,1,
0uk,152,L,true,164,2,1,1,1,1,
0uk,153,L,false,277,2,1,1,1,1,
0uk,154,L,false,289,1,1,1,1,1,
0uk,155,L,true,282,1,0,0,0,1,
0uk,156,L,true,139,2,0,1,1,1,
0uk,157,L,true,135,2,1,1,0,1,
0uk,158,L,true,433,2,1,0,0,1,
0uk,159,L,false,567,1,0,1,1,1,
0uk,160,L,false,200,2,0,0,0,0,
0uk,161,L,true,136,2,1,0,1,1,
0uk,162,L,true,171,2,1,0,1,1,
0uk,163,L,false,411,1,0,1,0,1,
0uk,164,L,false,121,2,0,0,1,1,
0uk,165,L,false,416,1,0,0,0,1,
0uk,166,L,true,277,1,1,1,1,1,
0uk,167,L,false,471,2,1,0,1,1,
0uk,168,L,true,125,2,0,0,1,1,
0uk,169,L,false,287,2,0,1,0,1,
0uk,170,L,false,348,1,0,1,1,1,
0uk,171,L,false,391,2,0,1,1,1,
0uk,172,L,false,1058,1,1,1,1,1,
0uk,173,L,true,84,1,1,1,1,1,
0uk,174,L,false,432,2,1,0,1,0,
0uk,175,L,true,398,2,1,1,0,1,
0uk,176,L,false,366,1,1,0,1,0,
0uk,177,L,false,119,2,0,0,0,1,
0uk,178,L,false,199,1,1,0,1,1,
0uk,179,L,true,71,1,0,0,1,1,
0uk,180,L,true,1512,1,1,1,1,1,
brk,brk,brk,brk,brk,brk,brk,brk,brk,brk,
0uk,181,L,false,4025,2,0,0,0,0,
0uk,182,L,false,396,1,1,0,1,1,
0uk,183,L,true,266,2,0,1,0,1,
0uk,184,L,false,615,1,1,1,1,1,
0uk,185,L,false,671,2,0,0,1,1,
0uk,186,L,true,129,2,0,1,1,0,
0uk,187,L,true,542,2,0,1,0,1,
0uk,188,L,false,248,2,0,1,1,1,
0uk,189,L,true,418,2,0,1,1,1,
0uk,190,L,false,1244,1,1,1,0,0,
0uk,191,L,true,139,1,1,1,0,0,
0uk,192,L,true,151,1,1,0,1,1,
0uk,193,L,true,22,1,1,1,0,1,
0uk,194,L,false,124,2,0,0,1,1,
0uk,195,L,true,128,2,0,1,0,1,
0uk,196,L,true,873,2,1,1,1,1,
0uk,197,L,true,351,2,0,1,1,1,
0uk,198,L,true,400,2,1,1,1,0,
0uk,199,L,true,737,1,1,0,0,0,
0uk,200,L,false,241,2,0,0,0,1,
0uk,201,L,true,238,2,1,0,1,1,
0uk,202,L,false,16,1,0,0,1,1,
0uk,203,L,false,842,1,0,1,1,1,
0uk,204,L,false,365,2,1,1,1,1,
0uk,205,L,false,573,1,0,1,1,1,
0uk,206,L,false,143,2,0,1,1,1,
0uk,207,L,false,82,2,1,0,1,0,
0uk,208,L,true,108,1,0,1,1,1,
0uk,209,L,true,337,2,0,0,1,1,
0uk,210,L,true,173,2,0,0,0,1,
0uk,211,L,false,256,1,1,0,0,0,
0uk,212,L,false,312,2,1,1,1,0,
0uk,213,L,false,269,1,0,0,1,1,
0uk,214,L,false,12,2,1,0,1,1,
0uk,215,L,true,265,2,1,1,1,1,
0uk,216,L,true,143,2,1,1,1,1,
0uk,217,L,false,497,2,0,1,0,1,
0uk,218,L,true,405,2,0,0,1,1,
0uk,219,L,false,40,1,1,1,0,1,
0uk,220,L,true,141,1,1,0,1,1,
0uk,221,L,false,246,2,1,0,1,1,
0uk,222,L,false,337,1,0,1,0,1,
0uk,223,L,false,166,2,1,1,0,1,
0uk,224,L,false,168,1,1,1,1,0,
0uk,225,L,true,105,1,0,0,1,1,
0uk,226,L,false,474,1,1,1,1,1,
0uk,227,L,true,25,1,1,1,0,0,
0uk,228,L,false,159,2,0,0,0,0,
0uk,229,L,true,385,2,0,0,1,1,
0uk,230,L,false,72,1,0,1,1,0,
0uk,231,L,true,9,1,1,0,1,0,
0uk,232,L,false,183,2,0,0,0,1,
0uk,233,L,true,144,2,0,1,1,1,
0uk,234,L,false,36,1,0,0,1,1,
0uk,235,L,true,408,2,1,1,0,1,
0uk,236,L,true,258,1,0,1,1,1,
0uk,237,L,true,572,1,0,0,1,0,
0uk,238,L,true,463,1,0,1,0,1,
0uk,239,L,true,200,1,1,0,1,0,
0uk,240,L,false,223,2,1,0,1,1,
0uk,241,L,true,49,2,0,1,1,1,
0uk,242,L,false,129,2,0,1,1,1,
0uk,243,L,true,480,2,0,0,0,1,
0uk,244,L,false,466,1,1,0,1,1,
0uk,245,L,false,32,2,1,0,1,1,
0uk,246,L,true,275,2,0,0,1,0,
0uk,247,L,true,394,2,0,1,1,0,
0uk,248,L,false,81,2,0,0,0,1,
0uk,249,L,false,94,1,1,1,1,1,
0uk,250,L,true,339,1,0,1,0,0,
0uk,251,L,false,20,2,1,1,1,1,
0uk,252,L,true,288,2,0,1,1,1,
0uk,253,L,true,374,2,1,1,1,0,
0uk,254,L,true,232,2,1,1,1,0,
0uk,255,L,true,287,2,1,1,1,1,
0uk,256,L,true,536,2,1,0,1,1,
0uk,257,L,true,191,1,1,0,1,1,
0uk,258,L,true,188,1,1,1,1,0,
0uk,259,L,false,542,2,0,0,0,1,
0uk,260,L,false,128,1,0,1,0,1,
0uk,261,L,false,293,1,1,1,1,0,
0uk,262,L,true,285,1,1,0,1,1,
0uk,263,L,true,79,1,1,1,1,1,
0uk,264,L,false,543,2,1,1,1,1,
0uk,265,L,true,345,2,1,0,1,1,
0uk,266,L,true,1113,1,1,1,1,0,
0uk,267,L,false,294,1,1,0,1,1,
0uk,268,L,true,204,1,0,1,0,1,
0uk,269,L,true,505,2,0,1,1,1,
0uk,270,L,true,374,2,0,1,0,0,
brk,brk,brk,brk,brk,brk,brk,brk,brk,brk,
0uk,271,L,false,4305,1,0,0,0,0,
0uk,272,L,true,69,1,0,1,1,1,
0uk,273,L,true,351,1,1,1,1,1,
0uk,274,L,false,43,2,0,0,0,1,
0uk,275,L,true,31,2,0,1,1,0,
0uk,276,L,true,354,1,0,0,1,1,
0uk,277,L,false,353,1,1,1,1,0,
0uk,278,L,false,458,2,1,1,1,1,
0uk,279,L,false,931,1,0,1,1,0,
0uk,280,L,false,515,2,0,1,1,1,
0uk,281,L,true,207,2,0,0,0,1,
0uk,282,L,true,257,2,0,1,1,1,
0uk,283,L,false,317,1,1,0,0,1,
0uk,284,L,true,176,1,1,1,1,1,
0uk,285,L,true,31,1,1,1,1,0,
0uk,286,L,false,81,2,1,0,1,1,
0uk,287,L,false,110,1,1,1,1,1,
0uk,288,L,true,361,1,0,1,0,1,
0uk,289,L,true,240,1,1,1,1,1,
0uk,290,L,false,375,2,0,0,0,0,
0uk,291,L,false,138,1,0,1,0,1,
0uk,292,L,false,355,2,1,0,0,0,
0uk,293,L,true,358,2,1,1,1,1,
0uk,294,L,false,422,1,0,1,1,1,
0uk,295,L,false,486,2,1,0,1,1,
0uk,296,L,true,185,2,1,1,1,0,
0uk,297,L,false,20,1,1,1,1,1,
0uk,298,L,true,126,1,0,1,0,0,
0uk,299,L,false,248,2,1,0,1,1,
0uk,300,L,true,346,2,1,1,1,0,
0uk,301,L,true,355,1,1,0,1,0,
0uk,302,L,false,309,2,0,1,1,1,
0uk,303,L,true,221,2,1,1,0,1,
0uk,304,L,false,677,1,0,0,1,0,
0uk,305,L,true,312,1,0,0,0,1,
0uk,306,L,false,98,2,0,0,1,1,
0uk,307,L,true,274,1,1,0,1,1,
0uk,308,L,false,292,2,1,0,1,0,
0uk,309,L,true,164,2,0,1,0,0,
0uk,310,L,false,125,1,1,1,0,1,
0uk,311,L,true,122,1,0,0,0,1,
0uk,312,L,false,539,2,1,1,0,1,
0uk,313,L,true,325,2,0,1,1,0,
0uk,314,L,false,192,1,0,0,0,1,
0uk,315,L,true,121,1,1,0,0,1,
0uk,316,L,false,149,2,0,1,1,1,
0uk,317,L,true,397,2,0,0,1,0,
0uk,318,L,true,248,2,0,1,0,1,
0uk,319,L,false,483,2,1,1,1,1,
0uk,320,L,true,343,2,0,1,0,1,
0uk,321,L,true,480,2,0,1,0,0,
0uk,322,L,false,863,1,0,1,1,1,
0uk,323,L,true,320,1,0,0,1,1,
0uk,324,L,true,287,1,1,1,1,1,
0uk,325,L,false,212,2,0,1,1,0,
0uk,326,L,false,291,1,1,1,0,0,
0uk,327,L,false,229,2,1,1,1,1,
0uk,328,L,false,211,1,0,1,0,1,
0uk,329,L,true,222,1,0,0,0,1,
0uk,330,L,false,56,2,1,1,1,0,
0uk,331,L,true,39,2,0,1,1,1,
0uk,332,L,true,248,2,1,1,0,0,
0uk,333,L,true,230,1,1,1,1,1,
0uk,334,L,true,393,2,0,0,1,0,
0uk,335,L,false,291,2,0,1,1,1,
0uk,336,L,false,128,1,0,1,1,1,
0uk,337,L,false,54,2,0,1,1,0,
0uk,338,L,false,193,1,0,1,0,1,
0uk,339,L,false,485,1,0,0,0,0,
0uk,340,L,true,534,2,1,0,1,0,
0uk,341,L,true,457,2,1,1,1,1,
0uk,342,L,false,276,2,0,0,1,1,
0uk,343,L,false,367,1,0,1,1,1,
0uk,344,L,false,118,1,1,0,1,1,
0uk,345,L,false,333,1,1,1,1,1,
0uk,346,L,true,31,2,0,1,1,1,
0uk,347,L,false,406,2,1,0,1,1,
0uk,348,L,false,119,1,1,0,1,1,
0uk,349,L,true,139,1,1,0,0,0,
0uk,350,L,false,387,1,1,0,1,1,
0uk,351,L,false,103,2,0,0,1,1,
0uk,352,L,true,214,1,0,0,1,0,
0uk,353,L,false,319,1,1,0,0,1,
0uk,354,L,true,36,1,1,0,1,0,
0uk,355,L,true,53,1,1,0,1,1,
0uk,356,L,true,277,1,1,1,0,0,
0uk,357,L,true,270,1,1,1,0,1,
0uk,358,L,false,284,2,1,0,1,0,
0uk,359,L,true,107,2,0,1,1,1,
0uk,360,L,false,80,2,0,0,1,1,
brk,brk,brk,brk,brk,brk,brk,brk,brk,brk,
0uk,361,L,false,903,2,0,1,1,1,
0uk,362,L,true,158,2,1,1,1,1,
0uk,363,L,false,12,2,0,0,1,0,
0uk,364,L,true,339,2,0,0,0,1,
0uk,365,L,false,90,2,1,1,1,1,
0uk,366,L,true,416,1,1,0,1,1,
0uk,367,L,true,760,2,0,1,0,1,
0uk,368,L,false,327,1,0,1,0,1,
0uk,369,L,false,293,2,0,1,0,1,
0uk,370,L,false,290,2,0,1,0,1,
0uk,371,L,false,131,1,1,1,0,1,
0uk,372,L,true,285,1,1,1,1,0,
0uk,373,L,true,94,1,1,1,1,0,
0uk,374,L,false,48,2,0,1,1,1,
0uk,375,L,false,588,1,0,0,0,1,
0uk,376,L,true,360,2,0,1,1,0,
0uk,377,L,true,1093,1,1,0,1,0,
0uk,378,L,false,425,1,0,1,1,1,
0uk,379,L,true,514,2,0,1,0,1,
0uk,380,L,false,164,1,0,1,1,0,
0uk,381,L,false,418,2,0,0,0,1,
0uk,382,L,false,72,1,1,1,1,1,
0uk,383,L,true,175,2,0,1,1,1,
0uk,384,L,false,279,2,0,1,0,1,
0uk,385,L,true,37,2,1,0,1,1,
0uk,386,L,false,120,1,1,0,1,1,
0uk,387,L,false,73,1,0,1,0,1,
0uk,388,L,false,1198,2,1,1,1,0,
0uk,389,L,false,483,2,0,1,1,1,
0uk,390,L,true,303,2,0,1,1,1,
0uk,391,L,true,1398,1,1,0,0,1,
0uk,392,L,true,823,1,1,0,1,0,
0uk,393,L,true,1657,1,1,0,1,1,
0uk,394,L,false,2300,2,1,0,1,0,
0uk,395,L,false,52,1,0,1,1,1,
0uk,396,L,false,1119,2,0,1,1,0,
0uk,397,L,false,1534,1,1,0,0,1,
0uk,398,L,false,120,2,0,1,1,1,
0uk,399,L,true,134,1,1,0,1,1,
0uk,400,L,false,347,1,0,1,0,0,
0uk,401,L,true,134,1,1,1,0,0,
0uk,402,L,true,439,1,0,1,0,1,
0uk,403,L,true,200,1,0,1,1,1,
0uk,404,L,true,184,1,1,0,1,1,
0uk,405,L,true,182,2,0,1,1,1,
0uk,406,L,false,18,1,0,1,1,1,
0uk,407,L,true,687,1,0,0,0,0,
0uk,408,L,false,284,1,0,1,1,1,
0uk,409,L,false,328,2,1,0,1,0,
0uk,410,L,false,126,1,0,1,0,1,
0uk,411,L,false,301,2,0,0,1,0,
0uk,412,L,false,393,2,1,1,1,0,
0uk,413,L,false,140,1,0,0,1,1,
0uk,414,L,false,369,2,1,0,0,1,
0uk,415,L,false,453,1,0,0,1,0,
0uk,416,L,false,45,2,0,0,1,1,
0uk,417,L,false,105,1,1,1,1,1,
0uk,418,L,false,267,2,0,1,1,0,
0uk,419,L,false,433,1,0,1,1,1,
0uk,420,L,true,270,1,1,1,1,0,
0uk,421,L,false,301,2,1,1,0,1,
0uk,422,L,true,459,2,1,0,1,1,
0uk,423,L,true,7,1,1,1,1,1,
0uk,424,L,false,501,2,0,0,1,0,
0uk,425,L,true,624,1,0,1,0,1,
0uk,426,L,false,90,1,1,1,1,1,
0uk,427,L,true,59,1,1,0,1,1,
0uk,428,L,true,240,2,0,1,1,1,
0uk,429,L,true,903,2,0,0,1,1,
0uk,430,L,true,896,1,1,1,1,1,
0uk,431,L,false,318,2,1,0,1,1,
0uk,432,L,true,86,2,0,1,1,1,
0uk,433,L,true,237,1,0,0,0,0,
0uk,434,L,false,35,2,0,0,1,1,
0uk,435,L,false,462,1,1,0,1,1,
0uk,436,L,true,31,2,1,1,1,1,
0uk,437,L,true,350,1,1,1,1,0,
0uk,438,L,true,31,1,1,1,0,1,
0uk,439,L,true,206,2,0,1,1,1,
0uk,440,L,true,40,1,0,0,1,1,
0uk,441,L,false,85,2,1,1,1,1,
0uk,442,L,true,326,2,0,0,0,0,
0uk,443,L,false,364,1,1,1,0,1,
0uk,444,L,true,664,1,0,1,0,1,
0uk,445,L,true,1315,2,1,1,0,0,
0uk,446,L,true,276,1,0,1,1,1,
0uk,447,L,true,460,1,1,1,1,1,
0uk,448,L,false,575,1,1,0,1,1,
0uk,449,L,false,486,2,0,0,1,1,
0uk,450,L,true,167,2,1,1,1,1,
