"success","trial_type","trial_index","time_elapsed","internal_node_id","subject","condition","timeout","failed_images","failed_audio","failed_video","view_history","rt","response_type","key_press","response","avg_frame_time","center_x","center_y","outcome","p1conf","p2conf","p1rslt","p2rslt","correct","stimulus","question_order"
"true","fullscreen","0","2271","0.0-0.0-0.0","ga4","[""L""]","","","","","","","","","","","","","","","","","","","",""
"true","preload","1","2277","0.0-0.0-1.0","ga4","[""L""]","false","[]","[]","[]","","","","","","","","","","","","","","","",""
"","instructions","2","164264","0.0-1.0","ga4","[""L""]","","","","","[{""page_index"":0,""viewing_time"":111185},{""page_index"":1,""viewing_time"":26984},{""page_index"":2,""viewing_time"":23816}]","161985","","","","","","","","","","","","","",""
"","psychophysics","3","169993","0.0-2.0-0.0","ga4","[""L""]","","","","","","5020","key","z","z","16.687586005830916","798","448.5","1","1","1","1","1","true","",""
"","psychophysics","4","171001","0.0-2.0-1.0","ga4","[""L""]","","","","","","null","key","null","null","16.68773333333326","798","448.5","1","1","1","1","1","","",""
"","psychophysics","5","172011","0.0-2.0-2.0-0.0","ga4","[""L""]","","","","","","null","key","null","null","16.685033898305353","798","448.5","1","1","1","1","1","","",""
"","psychophysics","6","177927","0.0-2.0-0.1","ga4","[""L""]","","","","","","5205","key","m","m","16.68587288135593","798","448.5","2","0","1","0","0","true","",""
"","psychophysics","7","178936","0.0-2.0-1.1","ga4","[""L""]","","","","","","null","key","null","null","16.686050847457857","798","448.5","2","0","1","0","0","","",""
"","psychophysics","8","179947","0.0-2.0-2.1-0.1","ga4","[""L""]","","","","","","null","key","null","null","16.685699999999876","798","448.5","2","0","1","0","0","","",""
"","psychophysics","9","187212","0.0-2.0-0.2","ga4","[""L""]","","","","","","6559","key","m","m","16.685801843317986","798","448.5","2","0","1","0","0","true","",""
"","psychophysics","10","188221","0.0-2.0-1.2","ga4","[""L""]","","","","","","null","key","null","null","16.686816666666708","798","448.5","2","0","1","0","0","","",""
"","psychophysics","11","189230","0.0-2.0-2.2-0.2","ga4","[""L""]","","","","","","null","key","null","null","16.68633898305095","798","448.5","2","0","1","0","0","","",""
"","psychophysics","12","195109","0.0-2.0-0.3","ga4","[""L""]","","","","","","5173","key","z","z","16.685971509971463","798","448.5","1","1","0","1","1","true","",""
"","psychophysics","13","196116","0.0-2.0-1.3","ga4","[""L""]","","","","","","null","key","null","null","16.687033333332995","798","448.5","1","1","0","1","1","","",""
"","psychophysics","14","197125","0.0-2.0-2.3-0.3","ga4","[""L""]","","","","","","null","key","null","null","16.686050847457857","798","448.5","1","1","0","1","1","","",""
"","psychophysics","15","208932","0.0-2.0-0.4","ga4","[""L""]","","","","","","11099","key","m","m","16.68590664780762","798","448.5","2","0","1","1","1","true","",""
"","psychophysics","16","209939","0.0-2.0-1.4","ga4","[""L""]","","","","","","null","key","null","null","16.686135593220154","798","448.5","2","0","1","1","1","","",""
"","psychophysics","17","210951","0.0-2.0-2.4-0.4","ga4","[""L""]","","","","","","null","key","null","null","16.686283333333268","798","448.5","2","0","1","1","1","","",""
"","psychophysics","18","214795","0.0-2.0-0.5","ga4","[""L""]","","","","","","3141","key","z","z","16.686034934497876","798","448.5","1","1","0","1","1","true","",""
"","psychophysics","19","215805","0.0-2.0-1.5","ga4","[""L""]","","","","","","null","key","null","null","16.68668333333335","798","448.5","1","1","0","1","1","","",""
"","psychophysics","20","216815","0.0-2.0-2.5-0.5","ga4","[""L""]","","","","","","null","key","null","null","16.686135593220154","798","448.5","1","1","0","1","1","","",""
"","psychophysics","21","224964","0.0-2.0-0.6","ga4","[""L""]","","","","","","7442","key","z","z","16.685961065573792","798","448.5","1","0","1","0","1","true","",""
"","psychophysics","22","225971","0.0-2.0-1.6","ga4","[""L""]","","","","","","null","key","null","null","16.685271186440872","798","448.5","1","0","1","0","1","","",""
"","psychophysics","23","226982","0.0-2.0-2.6-0.6","ga4","[""L""]","","","","","","null","key","null","null","16.686500000000038","798","448.5","1","0","1","0","1","","",""
"","psychophysics","24","234188","0.0-2.0-0.7","ga4","[""L""]","","","","","","6502","key","z","z","16.685918604651178","798","448.5","1","0","0","1","0","true","",""
"","psychophysics","25","235195","0.0-2.0-1.7","ga4","[""L""]","","","","","","null","key","null","null","16.684833333333277","798","448.5","1","0","0","1","0","","",""
"","psychophysics","26","236206","0.0-2.0-2.7-0.7","ga4","[""L""]","","","","","","null","key","null","null","16.68667796610162","798","448.5","1","0","0","1","0","","",""
"","psychophysics","27","246285","0.0-2.0-0.8","ga4","[""L""]","","","","","","9374","key","m","m","16.685847429519058","798","448.5","2","0","1","0","1","true","",""
"","psychophysics","28","247293","0.0-2.0-1.8","ga4","[""L""]","","","","","","null","key","null","null","16.686483333333552","798","448.5","2","0","1","0","1","","",""
"","psychophysics","29","248301","0.0-2.0-2.8-0.8","ga4","[""L""]","","","","","","null","key","null","null","16.685728813559052","798","448.5","2","0","1","0","1","","",""
"","psychophysics","30","251132","0.0-2.0-0.9","ga4","[""L""]","","","","","","2123","key","z","z","16.68617751479294","798","448.5","1","1","0","1","1","true","",""
"","psychophysics","31","252139","0.0-2.0-1.9","ga4","[""L""]","","","","","","null","key","null","null","16.6872542372883","798","448.5","1","1","0","1","1","","",""
"","psychophysics","32","253149","0.0-2.0-2.9-0.9","ga4","[""L""]","","","","","","null","key","null","null","16.68654999999999","798","448.5","1","1","0","1","1","","",""
"","psychophysics","33","257276","0.0-2.0-0.10","ga4","[""L""]","","","","","","3423","key","m","m","16.6858861788618","798","448.5","1","0","1","1","0","false","",""
"","psychophysics","34","258285","0.0-2.0-1.10","ga4","[""L""]","","","","","","null","key","null","null","16.686833333333198","798","448.5","1","0","1","1","0","","",""
"","psychophysics","35","259293","0.0-2.0-3.10-0.10","ga4","[""L""]","","","","","","null","key","null","null","16.68593220338985","798","448.5","1","0","1","1","0","","",""
"","psychophysics","36","263851","0.0-2.0-0.11","ga4","[""L""]","","","","","","3855","key","m","m","16.686018382352973","798","448.5","2","1","0","1","0","true","",""
"","psychophysics","37","264859","0.0-2.0-1.11","ga4","[""L""]","","","","","","null","key","null","null","16.68574999999934","798","448.5","2","1","0","1","0","","",""
"","psychophysics","38","265868","0.0-2.0-2.11-0.11","ga4","[""L""]","","","","","","null","key","null","null","16.686372881355673","798","448.5","2","1","0","1","0","","",""
"","psychophysics","39","270133","0.0-2.0-0.12","ga4","[""L""]","","","","","","3561","key","m","m","16.686023529411713","798","448.5","2","1","0","1","1","true","",""
"","psychophysics","40","271140","0.0-2.0-1.12","ga4","[""L""]","","","","","","null","key","null","null","16.685999999999787","798","448.5","2","1","0","1","1","","",""
"","psychophysics","41","272151","0.0-2.0-2.12-0.12","ga4","[""L""]","","","","","","null","key","null","null","16.686416666666627","798","448.5","2","1","0","1","1","","",""
"","psychophysics","42","279827","0.0-2.0-0.13","ga4","[""L""]","","","","","","6972","key","m","m","16.68578649237463","798","448.5","2","1","0","1","0","true","",""
"","psychophysics","43","280836","0.0-2.0-1.13","ga4","[""L""]","","","","","","null","key","null","null","16.685728813559052","798","448.5","2","1","0","1","0","","",""
"","psychophysics","44","281845","0.0-2.0-2.13-0.13","ga4","[""L""]","","","","","","null","key","null","null","16.68611666666693","798","448.5","2","1","0","1","0","","",""
"","psychophysics","45","288308","0.0-2.0-0.14","ga4","[""L""]","","","","","","5759","key","z","z","16.68575129533667","798","448.5","1","1","0","1","1","true","",""
"","psychophysics","46","289315","0.0-2.0-1.14","ga4","[""L""]","","","","","","null","key","null","null","16.686745762711556","798","448.5","1","1","0","1","1","","",""
"","psychophysics","47","290325","0.0-2.0-2.14-0.14","ga4","[""L""]","","","","","","null","key","null","null","16.68595000000011","798","448.5","1","1","0","1","1","","",""
"","psychophysics","48","299075","0.0-2.0-0.15","ga4","[""L""]","","","","","","8046","key","m","m","16.685847036328934","798","448.5","1","0","0","0","1","false","",""
"","psychophysics","49","300085","0.0-2.0-1.15","ga4","[""L""]","","","","","","null","key","null","null","16.68695000000007","798","448.5","1","0","0","0","1","","",""
"","psychophysics","50","301093","0.0-2.0-3.15-0.15","ga4","[""L""]","","","","","","null","key","null","null","16.685372881356518","798","448.5","1","0","0","0","1","","",""
"","psychophysics","51","307235","0.0-2.0-0.16","ga4","[""L""]","","","","","","5438","key","z","z","16.685880108991807","798","448.5","2","1","0","0","1","false","",""
"","psychophysics","52","308244","0.0-2.0-1.16","ga4","[""L""]","","","","","","null","key","null","null","16.68628333333278","798","448.5","2","1","0","0","1","","",""
"","psychophysics","53","309252","0.0-2.0-3.16-0.16","ga4","[""L""]","","","","","","null","key","null","null","16.68650847457653","798","448.5","2","1","0","0","1","","",""
"","psychophysics","54","312907","0.0-2.0-0.17","ga4","[""L""]","","","","","","2950","key","m","m","16.68591743119252","798","448.5","2","1","1","1","1","true","",""
"","psychophysics","55","313915","0.0-2.0-1.17","ga4","[""L""]","","","","","","null","key","null","null","16.686516666666527","798","448.5","2","1","1","1","1","","",""
"","psychophysics","56","314923","0.0-2.0-2.17-0.17","ga4","[""L""]","","","","","","null","key","null","null","16.686288135592882","798","448.5","2","1","1","1","1","","",""
"","psychophysics","57","318115","0.0-2.0-0.18","ga4","[""L""]","","","","","","2487","key","m","m","16.685910526315965","798","448.5","2","0","0","1","1","true","",""
"","psychophysics","58","319123","0.0-2.0-1.18","ga4","[""L""]","","","","","","null","key","null","null","16.685916666667133","798","448.5","2","0","0","1","1","","",""
"","psychophysics","59","320131","0.0-2.0-2.18-0.18","ga4","[""L""]","","","","","","null","key","null","null","16.686559322033613","798","448.5","2","0","0","1","1","","",""
"","psychophysics","60","326139","0.0-2.0-0.19","ga4","[""L""]","","","","","","5303","key","m","m","16.68590529247908","798","448.5","2","1","1","1","0","true","",""
"","psychophysics","61","327148","0.0-2.0-1.19","ga4","[""L""]","","","","","","null","key","null","null","16.686883333334116","798","448.5","2","1","1","1","0","","",""
"","psychophysics","62","328157","0.0-2.0-2.19-0.19","ga4","[""L""]","","","","","","null","key","null","null","16.68571186440669","798","448.5","2","1","1","1","0","","",""
"","psychophysics","63","333595","0.0-2.0-0.20","ga4","[""L""]","","","","","","4735","key","z","z","16.685895384615467","798","448.5","1","1","1","1","1","true","",""
"","psychophysics","64","334606","0.0-2.0-1.20","ga4","[""L""]","","","","","","null","key","null","null","16.685899999999673","798","448.5","1","1","1","1","1","","",""
"","psychophysics","65","335614","0.0-2.0-2.20-0.20","ga4","[""L""]","","","","","","null","key","null","null","16.685932203389356","798","448.5","1","1","1","1","1","","",""
"","psychophysics","66","337956","0.0-2.0-0.21","ga4","[""L""]","","","","","","1637","key","z","z","16.68620143884922","798","448.5","1","1","0","1","1","true","",""
"","psychophysics","67","338964","0.0-2.0-1.21","ga4","[""L""]","","","","","","null","key","null","null","16.686516666666527","798","448.5","1","1","0","1","1","","",""
"","psychophysics","68","339972","0.0-2.0-2.21-0.21","ga4","[""L""]","","","","","","null","key","null","null","16.685372881356518","798","448.5","1","1","0","1","1","","",""
"","psychophysics","69","343539","0.0-2.0-0.22","ga4","[""L""]","","","","","","2859","key","z","z","16.68588262910795","798","448.5","2","1","0","0","1","false","",""
"","psychophysics","70","344547","0.0-2.0-1.22","ga4","[""L""]","","","","","","null","key","null","null","16.68627118644052","798","448.5","2","1","0","0","1","","",""
"","psychophysics","71","345556","0.0-2.0-3.22-0.22","ga4","[""L""]","","","","","","null","key","null","null","16.685883333333187","798","448.5","2","1","0","0","1","","",""
"","psychophysics","72","349867","0.0-2.0-0.23","ga4","[""L""]","","","","","","3607","key","z","z","16.68579377431911","798","448.5","2","1","1","0","1","false","",""
"","psychophysics","73","350875","0.0-2.0-1.23","ga4","[""L""]","","","","","","null","key","null","null","16.686599999999938","798","448.5","2","1","1","0","1","","",""
"","psychophysics","74","351883","0.0-2.0-3.23-0.23","ga4","[""L""]","","","","","","null","key","null","null","16.686050847457857","798","448.5","2","1","1","0","1","","",""
"","psychophysics","75","355819","0.0-2.0-0.24","ga4","[""L""]","","","","","","3232","key","z","z","16.68604255319137","798","448.5","1","1","1","1","1","true","",""
"","psychophysics","76","356826","0.0-2.0-1.24","ga4","[""L""]","","","","","","null","key","null","null","16.68640677966138","798","448.5","1","1","1","1","1","","",""
"","psychophysics","77","357836","0.0-2.0-2.24-0.24","ga4","[""L""]","","","","","","null","key","null","null","16.68603333333352","798","448.5","1","1","1","1","1","","",""
"","psychophysics","78","360331","0.0-2.0-0.25","ga4","[""L""]","","","","","","1790","key","m","m","16.685898648648887","798","448.5","1","0","1","0","0","false","",""
"","psychophysics","79","361340","0.0-2.0-1.25","ga4","[""L""]","","","","","","null","key","null","null","16.68613333333342","798","448.5","1","0","1","0","0","","",""
"","psychophysics","80","362348","0.0-2.0-3.25-0.25","ga4","[""L""]","","","","","","null","key","null","null","16.685084745762435","798","448.5","1","0","1","0","0","","",""
"","psychophysics","81","364603","0.0-2.0-0.26","ga4","[""L""]","","","","","","1548","key","z","z","16.685947761194146","798","448.5","1","1","1","1","1","true","",""
"","psychophysics","82","365611","0.0-2.0-1.26","ga4","[""L""]","","","","","","null","key","null","null","16.68509999999951","798","448.5","1","1","1","1","1","","",""
"","psychophysics","83","366619","0.0-2.0-2.26-0.26","ga4","[""L""]","","","","","","null","key","null","null","16.685796610169483","798","448.5","1","1","1","1","1","","",""
"","psychophysics","84","369755","0.0-2.0-0.27","ga4","[""L""]","","","","","","2428","key","m","m","16.686181818181772","798","448.5","2","0","1","1","1","true","",""
"","psychophysics","85","370764","0.0-2.0-1.27","ga4","[""L""]","","","","","","null","key","null","null","16.68640000000014","798","448.5","2","0","1","1","1","","",""
"","psychophysics","86","371773","0.0-2.0-2.27-0.27","ga4","[""L""]","","","","","","null","key","null","null","16.68650847457653","798","448.5","2","0","1","1","1","","",""
"","psychophysics","87","376243","0.0-2.0-0.28","ga4","[""L""]","","","","","","3766","key","m","m","16.685887640449376","798","448.5","1","1","0","0","1","false","",""
"","psychophysics","88","377251","0.0-2.0-1.28","ga4","[""L""]","","","","","","null","key","null","null","16.6861186440673","798","448.5","1","1","0","0","1","","",""
"","psychophysics","89","378260","0.0-2.0-3.28-0.28","ga4","[""L""]","","","","","","null","key","null","null","16.686249999999806","798","448.5","1","1","0","0","1","","",""
"","psychophysics","90","382139","0.0-2.0-0.29","ga4","[""L""]","","","","","","3174","key","m","m","16.68602164502173","798","448.5","2","1","0","1","1","true","",""
"","psychophysics","91","383146","0.0-2.0-1.29","ga4","[""L""]","","","","","","null","key","null","null","16.68603333333255","798","448.5","2","1","0","1","1","","",""
"","psychophysics","92","384155","0.0-2.0-2.29-0.29","ga4","[""L""]","","","","","","null","key","null","null","16.685966101694078","798","448.5","2","1","0","1","1","","",""
"","psychophysics","93","386795","0.0-2.0-0.30","ga4","[""L""]","","","","","","1937","key","m","m","16.685987261146572","798","448.5","2","1","1","1","1","true","",""
"","psychophysics","94","387803","0.0-2.0-1.30","ga4","[""L""]","","","","","","null","key","null","null","16.686650000000373","798","448.5","2","1","1","1","1","","",""
"","psychophysics","95","388812","0.0-2.0-2.30-0.30","ga4","[""L""]","","","","","","null","key","null","null","16.68640677966138","798","448.5","2","1","1","1","1","","",""
"","psychophysics","96","390938","0.0-2.0-0.31","ga4","[""L""]","","","","","","1419","key","m","m","16.685913385826577","798","448.5","2","1","1","1","1","true","",""
"","psychophysics","97","391946","0.0-2.0-1.31","ga4","[""L""]","","","","","","null","key","null","null","16.68538983050888","798","448.5","2","1","1","1","1","","",""
"","psychophysics","98","392956","0.0-2.0-2.31-0.31","ga4","[""L""]","","","","","","null","key","null","null","16.686149999999905","798","448.5","2","1","1","1","1","","",""
"","psychophysics","99","395602","0.0-2.0-0.32","ga4","[""L""]","","","","","","1943","key","z","z","16.685662420382013","798","448.5","1","1","1","1","1","true","",""
"","psychophysics","100","396611","0.0-2.0-1.32","ga4","[""L""]","","","","","","null","key","null","null","16.685983333333084","798","448.5","1","1","1","1","1","","",""
"","psychophysics","101","397621","0.0-2.0-2.32-0.32","ga4","[""L""]","","","","","","null","key","null","null","16.685779661016138","798","448.5","1","1","1","1","1","","",""
"","psychophysics","102","400283","0.0-2.0-0.33","ga4","[""L""]","","","","","","1954","key","z","z","16.686119496855305","798","448.5","1","1","0","1","1","true","",""
"","psychophysics","103","401290","0.0-2.0-1.33","ga4","[""L""]","","","","","","null","key","null","null","16.685305084746087","798","448.5","1","1","0","1","1","","",""
"","psychophysics","104","402301","0.0-2.0-2.33-0.33","ga4","[""L""]","","","","","","null","key","null","null","16.68620000000034","798","448.5","1","1","0","1","1","","",""
"","psychophysics","105","404914","0.0-2.0-0.34","ga4","[""L""]","","","","","","1910","key","z","z","16.685645161290097","798","448.5","1","1","0","1","0","true","",""
"","psychophysics","106","405923","0.0-2.0-1.34","ga4","[""L""]","","","","","","null","key","null","null","16.686633333333884","798","448.5","1","1","0","1","0","","",""
"","psychophysics","107","406931","0.0-2.0-2.34-0.34","ga4","[""L""]","","","","","","null","key","null","null","16.68679661016864","798","448.5","1","1","0","1","0","","",""
"","psychophysics","108","409355","0.0-2.0-0.35","ga4","[""L""]","","","","","","1719","key","z","z","16.68594444444453","798","448.5","1","1","0","1","1","true","",""
"","psychophysics","109","410363","0.0-2.0-1.35","ga4","[""L""]","","","","","","null","key","null","null","16.68630000000024","798","448.5","1","1","0","1","1","","",""
"","psychophysics","110","411372","0.0-2.0-2.35-0.35","ga4","[""L""]","","","","","","null","key","null","null","16.686542372881252","798","448.5","1","1","0","1","1","","",""
"","psychophysics","111","415380","0.0-2.0-0.36","ga4","[""L""]","","","","","","3301","key","m","m","16.68585355648533","798","448.5","1","0","1","0","0","false","",""
"","psychophysics","112","416387","0.0-2.0-1.36","ga4","[""L""]","","","","","","null","key","null","null","16.686550000000473","798","448.5","1","0","1","0","0","","",""
"","psychophysics","113","417396","0.0-2.0-3.36-0.36","ga4","[""L""]","","","","","","null","key","null","null","16.685898305084635","798","448.5","1","0","1","0","0","","",""
"","psychophysics","114","423931","0.0-2.0-0.37","ga4","[""L""]","","","","","","5829","key","m","m","16.68583375959085","798","448.5","2","1","0","1","1","true","",""
"","psychophysics","115","424938","0.0-2.0-1.37","ga4","[""L""]","","","","","","null","key","null","null","16.686355932203313","798","448.5","2","1","0","1","1","","",""
"","psychophysics","116","425947","0.0-2.0-2.37-0.37","ga4","[""L""]","","","","","","null","key","null","null","16.68531666666677","798","448.5","2","1","0","1","1","","",""
"","psychophysics","117","429012","0.0-2.0-0.38","ga4","[""L""]","","","","","","2361","key","z","z","16.685873626373773","798","448.5","1","1","0","1","1","true","",""
"","psychophysics","118","430019","0.0-2.0-1.38","ga4","[""L""]","","","","","","null","key","null","null","16.68530000000028","798","448.5","1","1","0","1","1","","",""
"","psychophysics","119","431028","0.0-2.0-2.38-0.38","ga4","[""L""]","","","","","","null","key","null","null","16.68528813559274","798","448.5","1","1","0","1","1","","",""
"","psychophysics","120","433070","0.0-2.0-0.39","ga4","[""L""]","","","","","","1336","key","z","z","16.685893442622504","798","448.5","1","0","1","1","1","true","",""
"","psychophysics","121","434077","0.0-2.0-1.39","ga4","[""L""]","","","","","","null","key","null","null","16.685881355932274","798","448.5","1","0","1","1","1","","",""
"","psychophysics","122","435088","0.0-2.0-2.39-0.39","ga4","[""L""]","","","","","","null","key","null","null","16.686633333332914","798","448.5","1","0","1","1","1","","",""
"","psychophysics","123","439310","0.0-2.0-0.40","ga4","[""L""]","","","","","","3519","key","m","m","16.685805555555685","798","448.5","2","0","0","1","0","true","",""
"","psychophysics","124","440318","0.0-2.0-1.40","ga4","[""L""]","","","","","","null","key","null","null","16.68615254237202","798","448.5","2","0","0","1","0","","",""
"","psychophysics","125","441329","0.0-2.0-2.40-0.40","ga4","[""L""]","","","","","","null","key","null","null","16.686466666666092","798","448.5","2","0","0","1","0","","",""
"","psychophysics","126","453403","0.0-2.0-0.41","ga4","[""L""]","","","","","","11371","key","z","z","16.685867036011075","798","448.5","1","0","1","1","1","true","",""
"","psychophysics","127","454411","0.0-2.0-1.41","ga4","[""L""]","","","","","","null","key","null","null","16.685999999999574","798","448.5","1","0","1","1","1","","",""
"","psychophysics","128","455419","0.0-2.0-2.41-0.41","ga4","[""L""]","","","","","","null","key","null","null","16.686101694915926","798","448.5","1","0","1","1","1","","",""
"","psychophysics","129","457398","0.0-2.0-0.42","ga4","[""L""]","","","","","","1275","key","m","m","16.686194915254404","798","448.5","1","0","0","0","0","false","",""
"","psychophysics","130","458404","0.0-2.0-1.42","ga4","[""L""]","","","","","","null","key","null","null","16.68545762711832","798","448.5","1","0","0","0","0","","",""
"","psychophysics","131","459416","0.0-2.0-3.42-0.42","ga4","[""L""]","","","","","","null","key","null","null","16.686083333332984","798","448.5","1","0","0","0","0","","",""
"","psychophysics","132","462395","0.0-2.0-0.43","ga4","[""L""]","","","","","","2275","key","z","z","16.685830508474535","798","448.5","1","0","1","1","1","true","",""
"","psychophysics","133","463404","0.0-2.0-1.43","ga4","[""L""]","","","","","","null","key","null","null","16.686483333333552","798","448.5","1","0","1","1","1","","",""
"","psychophysics","134","464412","0.0-2.0-2.43-0.43","ga4","[""L""]","","","","","","null","key","null","null","16.685542372881113","798","448.5","1","0","1","1","1","","",""
"","psychophysics","135","466235","0.0-2.0-0.44","ga4","[""L""]","","","","","","1118","key","m","m","16.686092592592576","798","448.5","2","1","1","1","1","true","",""
"","psychophysics","136","467244","0.0-2.0-1.44","ga4","[""L""]","","","","","","null","key","null","null","16.68666666666686","798","448.5","2","1","1","1","1","","",""
"","psychophysics","137","468252","0.0-2.0-2.44-0.44","ga4","[""L""]","","","","","","null","key","null","null","16.685203389830935","798","448.5","2","1","1","1","1","","",""
"","psychophysics","138","470034","0.0-2.0-0.45","ga4","[""L""]","","","","","","1079","key","z","z","16.68612264150936","798","448.5","1","1","1","1","1","true","",""
"","psychophysics","139","471042","0.0-2.0-1.45","ga4","[""L""]","","","","","","null","key","null","null","16.685813559321844","798","448.5","1","1","1","1","1","","",""
"","psychophysics","140","472051","0.0-2.0-2.45-0.45","ga4","[""L""]","","","","","","null","key","null","null","16.685783333333287","798","448.5","1","1","1","1","1","","",""
"","psychophysics","141","474763","0.0-2.0-0.46","ga4","[""L""]","","","","","","2007","key","m","m","16.686018633540513","798","448.5","2","1","0","1","0","true","",""
"","psychophysics","142","475770","0.0-2.0-1.46","ga4","[""L""]","","","","","","null","key","null","null","16.687183333333813","798","448.5","2","1","0","1","0","","",""
"","psychophysics","143","476778","0.0-2.0-2.46-0.46","ga4","[""L""]","","","","","","null","key","null","null","16.685881355932274","798","448.5","2","1","0","1","0","","",""
"","psychophysics","144","482731","0.0-2.0-0.47","ga4","[""L""]","","","","","","5249","key","z","z","16.685738764045006","798","448.5","1","1","1","1","0","true","",""
"","psychophysics","145","483738","0.0-2.0-1.47","ga4","[""L""]","","","","","","null","key","null","null","16.685983050847426","798","448.5","1","1","1","1","0","","",""
"","psychophysics","146","484749","0.0-2.0-2.47-0.47","ga4","[""L""]","","","","","","null","key","null","null","16.68593333333265","798","448.5","1","1","1","1","0","","",""
"","psychophysics","147","487315","0.0-2.0-0.48","ga4","[""L""]","","","","","","1863","key","z","z","16.68605882352944","798","448.5","1","1","0","1","1","true","",""
"","psychophysics","148","488323","0.0-2.0-1.48","ga4","[""L""]","","","","","","null","key","null","null","16.685627118643904","798","448.5","1","1","0","1","1","","",""
"","psychophysics","149","489334","0.0-2.0-2.48-0.48","ga4","[""L""]","","","","","","null","key","null","null","16.686716666666324","798","448.5","1","1","0","1","1","","",""
"","psychophysics","150","497251","0.0-2.0-0.49","ga4","[""L""]","","","","","","7213","key","z","z","16.685818181818167","798","448.5","1","0","0","1","1","true","",""
"","psychophysics","151","498261","0.0-2.0-1.49","ga4","[""L""]","","","","","","null","key","null","null","16.68693333333261","798","448.5","1","0","0","1","1","","",""
"","psychophysics","152","499269","0.0-2.0-2.49-0.49","ga4","[""L""]","","","","","","null","key","null","null","16.684915254236856","798","448.5","1","0","0","1","1","","",""
"","psychophysics","153","501348","0.0-2.0-0.50","ga4","[""L""]","","","","","","1375","key","z","z","16.68645967741923","798","448.5","1","1","1","1","1","true","",""
"","psychophysics","154","502355","0.0-2.0-1.50","ga4","[""L""]","","","","","","null","key","null","null","16.685186440678574","798","448.5","1","1","1","1","1","","",""
"","psychophysics","155","503366","0.0-2.0-2.50-0.50","ga4","[""L""]","","","","","","null","key","null","null","16.686566666666963","798","448.5","1","1","1","1","1","","",""
"","psychophysics","156","509674","0.0-2.0-0.51","ga4","[""L""]","","","","","","5604","key","m","m","16.685904509283848","798","448.5","2","0","0","1","1","true","",""
"","psychophysics","157","510682","0.0-2.0-1.51","ga4","[""L""]","","","","","","null","key","null","null","16.68571186440669","798","448.5","2","0","0","1","1","","",""
"","psychophysics","158","511693","0.0-2.0-2.51-0.51","ga4","[""L""]","","","","","","null","key","null","null","16.686233333333316","798","448.5","2","0","0","1","1","","",""
"","psychophysics","159","516634","0.0-2.0-0.52","ga4","[""L""]","","","","","","4238","key","z","z","16.685742372881336","798","448.5","1","0","0","1","0","true","",""
"","psychophysics","160","517640","0.0-2.0-1.52","ga4","[""L""]","","","","","","null","key","null","null","16.686491525423182","798","448.5","1","0","0","1","0","","",""
"","psychophysics","161","518651","0.0-2.0-2.52-0.52","ga4","[""L""]","","","","","","null","key","null","null","16.685966666667568","798","448.5","1","0","0","1","0","","",""
"","psychophysics","162","522290","0.0-2.0-0.53","ga4","[""L""]","","","","","","2936","key","m","m","16.685677419354644","798","448.5","1","1","1","0","1","false","",""
"","psychophysics","163","523299","0.0-2.0-1.53","ga4","[""L""]","","","","","","null","key","null","null","16.68544067796596","798","448.5","1","1","1","0","1","","",""
"","psychophysics","164","524308","0.0-2.0-3.53-0.53","ga4","[""L""]","","","","","","null","key","null","null","16.68595000000011","798","448.5","1","1","1","0","1","","",""
"","psychophysics","165","530154","0.0-2.0-0.54","ga4","[""L""]","","","","","","5143","key","m","m","16.685773638968374","798","448.5","2","1","0","1","0","true","",""
"","psychophysics","166","531165","0.0-2.0-1.54","ga4","[""L""]","","","","","","null","key","null","null","16.686816666667195","798","448.5","2","1","0","1","0","","",""
"","psychophysics","167","532173","0.0-2.0-2.54-0.54","ga4","[""L""]","","","","","","null","key","null","null","16.6857457627124","798","448.5","2","1","0","1","0","","",""
"","psychophysics","168","539978","0.0-2.0-0.55","ga4","[""L""]","","","","","","7102","key","z","z","16.685890792291193","798","448.5","1","1","0","1","1","true","",""
"","psychophysics","169","540985","0.0-2.0-1.55","ga4","[""L""]","","","","","","null","key","null","null","16.68508474576145","798","448.5","1","1","0","1","1","","",""
"","psychophysics","170","541994","0.0-2.0-2.55-0.55","ga4","[""L""]","","","","","","null","key","null","null","16.68666666666589","798","448.5","1","1","0","1","1","","",""
"","psychophysics","171","544364","0.0-2.0-0.56","ga4","[""L""]","","","","","","1667","key","z","z","16.68596453900723","798","448.5","1","0","1","1","1","true","",""
"","psychophysics","172","545371","0.0-2.0-1.56","ga4","[""L""]","","","","","","null","key","null","null","16.685491525422055","798","448.5","1","0","1","1","1","","",""
"","psychophysics","173","546382","0.0-2.0-2.56-0.56","ga4","[""L""]","","","","","","null","key","null","null","16.68713333333338","798","448.5","1","0","1","1","1","","",""
"","psychophysics","174","548226","0.0-2.0-0.57","ga4","[""L""]","","","","","","1140","key","z","z","16.685990825688485","798","448.5","1","1","0","1","1","true","",""
"","psychophysics","175","549236","0.0-2.0-1.57","ga4","[""L""]","","","","","","null","key","null","null","16.686616666667398","798","448.5","1","1","0","1","1","","",""
"","psychophysics","176","550243","0.0-2.0-2.57-0.57","ga4","[""L""]","","","","","","null","key","null","null","16.686000000000774","798","448.5","1","1","0","1","1","","",""
"","psychophysics","177","552140","0.0-2.0-0.58","ga4","[""L""]","","","","","","1193","key","m","m","16.685884955752254","798","448.5","2","1","0","1","0","true","",""
"","psychophysics","178","553147","0.0-2.0-1.58","ga4","[""L""]","","","","","","null","key","null","null","16.68574576271043","798","448.5","2","1","0","1","0","","",""
"","psychophysics","179","554158","0.0-2.0-2.58-0.58","ga4","[""L""]","","","","","","null","key","null","null","16.686716666666324","798","448.5","2","1","0","1","0","","",""
"","psychophysics","180","558082","0.0-2.0-0.59","ga4","[""L""]","","","","","","3220","key","m","m","16.68571794871788","798","448.5","2","0","1","0","1","true","",""
"","psychophysics","181","559089","0.0-2.0-1.59","ga4","[""L""]","","","","","","null","key","null","null","16.686288135593866","798","448.5","2","0","1","0","1","","",""
"","psychophysics","182","560099","0.0-2.0-2.59-0.59","ga4","[""L""]","","","","","","null","key","null","null","16.686433333333117","798","448.5","2","0","1","0","1","","",""
"","psychophysics","183","565890","0.0-2.0-0.60","ga4","[""L""]","","","","","","5088","key","m","m","16.68608381502893","798","448.5","1","0","0","1","0","false","",""
"","psychophysics","184","566897","0.0-2.0-1.60","ga4","[""L""]","","","","","","null","key","null","null","16.68701694915229","798","448.5","1","0","0","1","0","","",""
"","psychophysics","185","567908","0.0-2.0-3.60-0.60","ga4","[""L""]","","","","","","null","key","null","null","16.686250000000776","798","448.5","1","0","0","1","0","","",""
"","psychophysics","186","570498","0.0-2.0-0.61","ga4","[""L""]","","","","","","1887","key","z","z","16.68574025973983","798","448.5","1","0","0","1","1","true","",""
"","psychophysics","187","571505","0.0-2.0-1.61","ga4","[""L""]","","","","","","null","key","null","null","16.685881355931286","798","448.5","1","0","0","1","1","","",""
"","psychophysics","188","572515","0.0-2.0-2.61-0.61","ga4","[""L""]","","","","","","null","key","null","null","16.68611666666499","798","448.5","1","0","0","1","1","","",""
"","psychophysics","189","576778","0.0-2.0-0.62","ga4","[""L""]","","","","","","3560","key","m","m","16.685866141732138","798","448.5","2","1","1","1","1","true","",""
"","psychophysics","190","577790","0.0-2.0-1.62","ga4","[""L""]","","","","","","null","key","null","null","16.68611666666499","798","448.5","2","1","1","1","1","","",""
"","psychophysics","191","578799","0.0-2.0-2.62-0.62","ga4","[""L""]","","","","","","null","key","null","null","16.686288135593866","798","448.5","2","1","1","1","1","","",""
"","psychophysics","192","581226","0.0-2.0-0.63","ga4","[""L""]","","","","","","1722","key","z","z","16.685889655171795","798","448.5","1","1","1","1","1","true","",""
"","psychophysics","193","582233","0.0-2.0-1.63","ga4","[""L""]","","","","","","null","key","null","null","16.68640677966138","798","448.5","1","1","1","1","1","","",""
"","psychophysics","194","583243","0.0-2.0-2.63-0.63","ga4","[""L""]","","","","","","null","key","null","null","16.686549999999503","798","448.5","1","1","1","1","1","","",""
"","psychophysics","195","587044","0.0-2.0-0.64","ga4","[""L""]","","","","","","3098","key","z","z","16.685707964601647","798","448.5","1","0","0","1","0","true","",""
"","psychophysics","196","588052","0.0-2.0-1.64","ga4","[""L""]","","","","","","null","key","null","null","16.686599999999938","798","448.5","1","0","0","1","0","","",""
"","psychophysics","197","589061","0.0-2.0-2.64-0.64","ga4","[""L""]","","","","","","null","key","null","null","16.68640677966138","798","448.5","1","0","0","1","0","","",""
"","psychophysics","198","594802","0.0-2.0-0.65","ga4","[""L""]","","","","","","5036","key","z","z","16.68577842565617","798","448.5","1","1","1","1","0","true","",""
"","psychophysics","199","595811","0.0-2.0-1.65","ga4","[""L""]","","","","","","null","key","null","null","16.685033333334527","798","448.5","1","1","1","1","0","","",""
"","psychophysics","200","596820","0.0-2.0-2.65-0.65","ga4","[""L""]","","","","","","null","key","null","null","16.68662711864503","798","448.5","1","1","1","1","0","","",""
"","psychophysics","201","599266","0.0-2.0-0.66","ga4","[""L""]","","","","","","1741","key","m","m","16.686376712328837","798","448.5","2","1","1","1","0","true","",""
"","psychophysics","202","600274","0.0-2.0-1.66","ga4","[""L""]","","","","","","null","key","null","null","16.687000000000914","798","448.5","2","1","1","1","0","","",""
"","psychophysics","203","601283","0.0-2.0-2.66-0.66","ga4","[""L""]","","","","","","null","key","null","null","16.686233333333316","798","448.5","2","1","1","1","0","","",""
"","psychophysics","204","605922","0.0-2.0-0.67","ga4","[""L""]","","","","","","3937","key","m","m","16.68581227436813","798","448.5","2","1","1","1","1","true","",""
"","psychophysics","205","606930","0.0-2.0-1.67","ga4","[""L""]","","","","","","null","key","null","null","16.685813559321844","798","448.5","2","1","1","1","1","","",""
"","psychophysics","206","607941","0.0-2.0-2.67-0.67","ga4","[""L""]","","","","","","null","key","null","null","16.686549999999503","798","448.5","2","1","1","1","1","","",""
"","psychophysics","207","609778","0.0-2.0-0.68","ga4","[""L""]","","","","","","1134","key","z","z","16.685935779816447","798","448.5","1","1","1","1","1","true","",""
"","psychophysics","208","610786","0.0-2.0-1.68","ga4","[""L""]","","","","","","null","key","null","null","16.686644067796404","798","448.5","1","1","1","1","1","","",""
"","psychophysics","209","611796","0.0-2.0-2.68-0.68","ga4","[""L""]","","","","","","null","key","null","null","16.685999999998604","798","448.5","1","1","1","1","1","","",""
"","psychophysics","210","614875","0.0-2.0-0.69","ga4","[""L""]","","","","","","2375","key","m","m","16.685721311475216","798","448.5","2","1","0","1","1","true","",""
"","psychophysics","211","615883","0.0-2.0-1.69","ga4","[""L""]","","","","","","null","key","null","null","16.683749999998447","798","448.5","2","1","0","1","1","","",""
"","psychophysics","212","616891","0.0-2.0-2.69-0.69","ga4","[""L""]","","","","","","null","key","null","null","16.685949152542705","798","448.5","2","1","0","1","1","","",""
"","psychophysics","213","627594","0.0-2.0-0.70","ga4","[""L""]","","","","","","9996","key","z","z","16.685886115444696","798","448.5","2","0","1","1","0","false","",""
"","psychophysics","214","628602","0.0-2.0-1.70","ga4","[""L""]","","","","","","null","key","null","null","16.686644067796404","798","448.5","2","0","1","1","0","","",""
"","psychophysics","215","629613","0.0-2.0-3.70-0.70","ga4","[""L""]","","","","","","null","key","null","null","16.686533333333987","798","448.5","2","0","1","1","0","","",""
"","psychophysics","216","633100","0.0-2.0-0.71","ga4","[""L""]","","","","","","2784","key","m","m","16.685663461538542","798","448.5","2","0","1","0","1","true","",""
"","psychophysics","217","634107","0.0-2.0-1.71","ga4","[""L""]","","","","","","null","key","null","null","16.68618644067773","798","448.5","2","0","1","0","1","","",""
"","psychophysics","218","635118","0.0-2.0-2.71-0.71","ga4","[""L""]","","","","","","null","key","null","null","16.686733333333784","798","448.5","2","0","1","0","1","","",""
"","psychophysics","219","637251","0.0-2.0-0.72","ga4","[""L""]","","","","","","1428","key","m","m","16.685571428571297","798","448.5","2","1","1","1","1","true","",""
"","psychophysics","220","638258","0.0-2.0-1.72","ga4","[""L""]","","","","","","null","key","null","null","16.685783333333287","798","448.5","2","1","1","1","1","","",""
"","psychophysics","221","639267","0.0-2.0-2.72-0.72","ga4","[""L""]","","","","","","null","key","null","null","16.685830508475192","798","448.5","2","1","1","1","1","","",""
"","psychophysics","222","641450","0.0-2.0-0.73","ga4","[""L""]","","","","","","1476","key","m","m","16.685961538461896","798","448.5","2","1","0","1","1","true","",""
"","psychophysics","223","642460","0.0-2.0-1.73","ga4","[""L""]","","","","","","null","key","null","null","16.686449999998633","798","448.5","2","1","0","1","1","","",""
"","psychophysics","224","643470","0.0-2.0-2.73-0.73","ga4","[""L""]","","","","","","null","key","null","null","16.6857966101685","798","448.5","2","1","0","1","1","","",""
"","psychophysics","225","646298","0.0-2.0-0.74","ga4","[""L""]","","","","","","2125","key","m","m","16.685893491124762","798","448.5","1","1","0","0","1","false","",""
"","psychophysics","226","647305","0.0-2.0-1.74","ga4","[""L""]","","","","","","null","key","null","null","16.685372881356518","798","448.5","1","1","0","0","1","","",""
"","psychophysics","227","648317","0.0-2.0-3.74-0.74","ga4","[""L""]","","","","","","null","key","null","null","16.6862166666678","798","448.5","1","1","0","0","1","","",""
"","psychophysics","228","652818","0.0-2.0-0.75","ga4","[""L""]","","","","","","3799","key","m","m","16.685731343283845","798","448.5","2","0","1","1","1","true","",""
"","psychophysics","229","653826","0.0-2.0-1.75","ga4","[""L""]","","","","","","null","key","null","null","16.685800000000746","798","448.5","2","0","1","1","1","","",""
"","psychophysics","230","654835","0.0-2.0-2.75-0.75","ga4","[""L""]","","","","","","null","key","null","null","16.686169491526353","798","448.5","2","0","1","1","1","","",""
"","psychophysics","231","658873","0.0-2.0-0.76","ga4","[""L""]","","","","","","3332","key","z","z","16.685834024896597","798","448.5","1","0","0","1","0","true","",""
"","psychophysics","232","659881","0.0-2.0-1.76","ga4","[""L""]","","","","","","null","key","null","null","16.68563333333198","798","448.5","1","0","0","1","0","","",""
"","psychophysics","233","660890","0.0-2.0-2.76-0.76","ga4","[""L""]","","","","","","null","key","null","null","16.685271186440378","798","448.5","1","0","0","1","0","","",""
"","psychophysics","234","663685","0.0-2.0-0.77","ga4","[""L""]","","","","","","2091","key","z","z","16.685982035928195","798","448.5","2","0","1","0","0","false","",""
"","psychophysics","235","664692","0.0-2.0-1.77","ga4","[""L""]","","","","","","null","key","null","null","16.685423728812612","798","448.5","2","0","1","0","0","","",""
"","psychophysics","236","665703","0.0-2.0-3.77-0.77","ga4","[""L""]","","","","","","null","key","null","null","16.68628333333375","798","448.5","2","0","1","0","0","","",""
"","psychophysics","237","668289","0.0-2.0-0.78","ga4","[""L""]","","","","","","1883","key","z","z","16.685571428571297","798","448.5","1","0","1","1","1","true","",""
"","psychophysics","238","669298","0.0-2.0-1.78","ga4","[""L""]","","","","","","null","key","null","null","16.68496610169591","798","448.5","1","0","1","1","1","","",""
"","psychophysics","239","670308","0.0-2.0-2.78-0.78","ga4","[""L""]","","","","","","null","key","null","null","16.686500000001008","798","448.5","1","0","1","1","1","","",""
"","psychophysics","240","674834","0.0-2.0-0.79","ga4","[""L""]","","","","","","3822","key","m","m","16.685914814814545","798","448.5","1","0","1","0","0","false","",""
"","psychophysics","241","675842","0.0-2.0-1.79","ga4","[""L""]","","","","","","null","key","null","null","16.686237288133825","798","448.5","1","0","1","0","0","","",""
"","psychophysics","242","676852","0.0-2.0-3.79-0.79","ga4","[""L""]","","","","","","null","key","null","null","16.68575000000031","798","448.5","1","0","1","0","0","","",""
"","psychophysics","243","680537","0.0-2.0-0.80","ga4","[""L""]","","","","","","2981","key","m","m","16.685800000000217","798","448.5","2","1","1","1","1","true","",""
"","psychophysics","244","681544","0.0-2.0-1.80","ga4","[""L""]","","","","","","null","key","null","null","16.684983050847283","798","448.5","2","1","1","1","1","","",""
"","psychophysics","245","682555","0.0-2.0-2.80-0.80","ga4","[""L""]","","","","","","null","key","null","null","16.686350000001646","798","448.5","2","1","1","1","1","","",""
"","psychophysics","246","692705","0.0-2.0-0.81","ga4","[""L""]","","","","","","9447","key","m","m","16.685784184514112","798","448.5","2","1","1","1","0","true","",""
"","psychophysics","247","693713","0.0-2.0-1.81","ga4","[""L""]","","","","","","null","key","null","null","16.685881355931286","798","448.5","2","1","1","1","0","","",""
"","psychophysics","248","694724","0.0-2.0-2.81-0.81","ga4","[""L""]","","","","","","null","key","null","null","16.686083333332014","798","448.5","2","1","1","1","0","","",""
"","psychophysics","249","698849","0.0-2.0-0.82","ga4","[""L""]","","","","","","3422","key","m","m","16.685951219512457","798","448.5","2","0","0","1","0","true","",""
"","psychophysics","250","699859","0.0-2.0-1.82","ga4","[""L""]","","","","","","null","key","null","null","16.686533333333987","798","448.5","2","0","0","1","0","","",""
"","psychophysics","251","700869","0.0-2.0-2.82-0.82","ga4","[""L""]","","","","","","null","key","null","null","16.685677966100986","798","448.5","2","0","0","1","0","","",""
"","psychophysics","252","703705","0.0-2.0-0.83","ga4","[""L""]","","","","","","2133","key","z","z","16.68600000000005","798","448.5","1","0","1","1","1","true","",""
"","psychophysics","253","704714","0.0-2.0-1.83","ga4","[""L""]","","","","","","null","key","null","null","16.68695000000104","798","448.5","1","0","1","1","1","","",""
"","psychophysics","254","705723","0.0-2.0-2.83-0.83","ga4","[""L""]","","","","","","null","key","null","null","16.686067796610217","798","448.5","1","0","1","1","1","","",""
"","psychophysics","255","707577","0.0-2.0-0.84","ga4","[""L""]","","","","","","1150","key","z","z","16.68588181818116","798","448.5","1","1","1","1","1","true","",""
"","psychophysics","256","708586","0.0-2.0-1.84","ga4","[""L""]","","","","","","null","key","null","null","16.68631666666673","798","448.5","1","1","1","1","1","","",""
"","psychophysics","257","709596","0.0-2.0-2.84-0.84","ga4","[""L""]","","","","","","null","key","null","null","16.685542372880125","798","448.5","1","1","1","1","1","","",""
"","psychophysics","258","712090","0.0-2.0-0.85","ga4","[""L""]","","","","","","1790","key","m","m","16.68609395973156","798","448.5","2","0","1","0","1","true","",""
"","psychophysics","259","713098","0.0-2.0-1.85","ga4","[""L""]","","","","","","null","key","null","null","16.685372881356518","798","448.5","2","0","1","0","1","","",""
"","psychophysics","260","714109","0.0-2.0-2.85-0.85","ga4","[""L""]","","","","","","null","key","null","null","16.686566666666963","798","448.5","2","0","1","0","1","","",""
"","psychophysics","261","716154","0.0-2.0-0.86","ga4","[""L""]","","","","","","1342","key","z","z","16.686140495868138","798","448.5","1","1","0","1","0","true","",""
"","psychophysics","262","717162","0.0-2.0-1.86","ga4","[""L""]","","","","","","null","key","null","null","16.68668333333335","798","448.5","1","1","0","1","0","","",""
"","psychophysics","263","718171","0.0-2.0-2.86-0.86","ga4","[""L""]","","","","","","null","key","null","null","16.685949152542705","798","448.5","1","1","0","1","0","","",""
"","psychophysics","264","721258","0.0-2.0-0.87","ga4","[""L""]","","","","","","2383","key","m","m","16.685967391304313","798","448.5","1","0","0","0","1","false","",""
"","psychophysics","265","722268","0.0-2.0-1.87","ga4","[""L""]","","","","","","null","key","null","null","16.686000000000544","798","448.5","1","0","0","0","1","","",""
"","psychophysics","266","723277","0.0-2.0-3.87-0.87","ga4","[""L""]","","","","","","null","key","null","null","16.68571186440768","798","448.5","1","0","0","0","1","","",""
"","psychophysics","267","725650","0.0-2.0-0.88","ga4","[""L""]","","","","","","1669","key","m","m","16.685950354609393","798","448.5","2","1","0","1","1","true","",""
"","psychophysics","268","726658","0.0-2.0-1.88","ga4","[""L""]","","","","","","null","key","null","null","16.68628333333375","798","448.5","2","1","0","1","1","","",""
"","psychophysics","269","727667","0.0-2.0-2.88-0.88","ga4","[""L""]","","","","","","null","key","null","null","16.686322033898588","798","448.5","2","1","0","1","1","","",""
"","psychophysics","270","729828","0.0-2.0-0.89","ga4","[""L""]","","","","","","1457","key","m","m","16.68617054263523","798","448.5","2","1","0","1","1","true","",""
"","psychophysics","271","730835","0.0-2.0-1.89","ga4","[""L""]","","","","","","null","key","null","null","16.6853050847451","798","448.5","2","1","0","1","1","","",""
"","psychophysics","272","731846","0.0-2.0-2.89-0.89","ga4","[""L""]","","","","","","null","key","null","null","16.686633333334854","798","448.5","2","1","0","1","1","","",""
"","html-keyboard-response","273","739226","0.0-2.0-4.89-0.89","ga4","[""L""]","","","","","","7375","","","g","","","","","","","","","","<p>You have finished block 1 of 5.<p>You correctly predicted 82% of the races.<p>On the next screen, you will be given a 30 second break. Press the <b>g</b> key to start your break.",""
"","html-keyboard-response","274","740229","0.0-2.0-4.89-1.89-0.89","ga4","[""L""]","","","","","","null","","","null","","","","","","","","","","<p>The experiment will resume in 30 seconds. ",""
"","html-keyboard-response","275","741233","0.0-2.0-4.89-1.89-1.89","ga4","[""L""]","","","","","","null","","","null","","","","","","","","","","<p>The experiment will resume in 29 seconds. ",""
"","html-keyboard-response","276","742235","0.0-2.0-4.89-1.89-2.89","ga4","[""L""]","","","","","","null","","","null","","","","","","","","","","<p>The experiment will resume in 28 seconds. ",""
"","html-keyboard-response","277","743237","0.0-2.0-4.89-1.89-3.89","ga4","[""L""]","","","","","","null","","","null","","","","","","","","","","<p>The experiment will resume in 27 seconds. ",""
"","html-keyboard-response","278","744239","0.0-2.0-4.89-1.89-4.89","ga4","[""L""]","","","","","","null","","","null","","","","","","","","","","<p>The experiment will resume in 26 seconds. ",""
"","html-keyboard-response","279","745242","0.0-2.0-4.89-1.89-5.89","ga4","[""L""]","","","","","","null","","","null","","","","","","","","","","<p>The experiment will resume in 25 seconds. ",""
"","html-keyboard-response","280","746244","0.0-2.0-4.89-1.89-6.89","ga4","[""L""]","","","","","","null","","","null","","","","","","","","","","<p>The experiment will resume in 24 seconds. ",""
"","html-keyboard-response","281","747247","0.0-2.0-4.89-1.89-7.89","ga4","[""L""]","","","","","","null","","","null","","","","","","","","","","<p>The experiment will resume in 23 seconds. ",""
"","html-keyboard-response","282","748250","0.0-2.0-4.89-1.89-8.89","ga4","[""L""]","","","","","","null","","","null","","","","","","","","","","<p>The experiment will resume in 22 seconds. ",""
"","html-keyboard-response","283","749252","0.0-2.0-4.89-1.89-9.89","ga4","[""L""]","","","","","","null","","","null","","","","","","","","","","<p>The experiment will resume in 21 seconds. ",""
"","html-keyboard-response","284","750253","0.0-2.0-4.89-1.89-10.89","ga4","[""L""]","","","","","","null","","","null","","","","","","","","","","<p>The experiment will resume in 20 seconds. ",""
"","html-keyboard-response","285","751255","0.0-2.0-4.89-1.89-11.89","ga4","[""L""]","","","","","","null","","","null","","","","","","","","","","<p>The experiment will resume in 19 seconds. ",""
"","html-keyboard-response","286","752257","0.0-2.0-4.89-1.89-12.89","ga4","[""L""]","","","","","","null","","","null","","","","","","","","","","<p>The experiment will resume in 18 seconds. ",""
"","html-keyboard-response","287","753258","0.0-2.0-4.89-1.89-13.89","ga4","[""L""]","","","","","","null","","","null","","","","","","","","","","<p>The experiment will resume in 17 seconds. ",""
"","html-keyboard-response","288","754260","0.0-2.0-4.89-1.89-14.89","ga4","[""L""]","","","","","","null","","","null","","","","","","","","","","<p>The experiment will resume in 16 seconds. ",""
"","html-keyboard-response","289","755262","0.0-2.0-4.89-1.89-15.89","ga4","[""L""]","","","","","","null","","","null","","","","","","","","","","<p>The experiment will resume in 15 seconds. ",""
"","html-keyboard-response","290","756263","0.0-2.0-4.89-1.89-16.89","ga4","[""L""]","","","","","","null","","","null","","","","","","","","","","<p>The experiment will resume in 14 seconds. ",""
"","html-keyboard-response","291","757264","0.0-2.0-4.89-1.89-17.89","ga4","[""L""]","","","","","","null","","","null","","","","","","","","","","<p>The experiment will resume in 13 seconds. ",""
"","html-keyboard-response","292","758266","0.0-2.0-4.89-1.89-18.89","ga4","[""L""]","","","","","","null","","","null","","","","","","","","","","<p>The experiment will resume in 12 seconds. ",""
"","html-keyboard-response","293","759267","0.0-2.0-4.89-1.89-19.89","ga4","[""L""]","","","","","","null","","","null","","","","","","","","","","<p>The experiment will resume in 11 seconds. ",""
"","html-keyboard-response","294","760268","0.0-2.0-4.89-1.89-20.89","ga4","[""L""]","","","","","","null","","","null","","","","","","","","","","<p>The experiment will resume in 10 seconds. ",""
"","html-keyboard-response","295","761270","0.0-2.0-4.89-1.89-21.89","ga4","[""L""]","","","","","","null","","","null","","","","","","","","","","<p>The experiment will resume in 9 seconds. ",""
"","html-keyboard-response","296","762271","0.0-2.0-4.89-1.89-22.89","ga4","[""L""]","","","","","","null","","","null","","","","","","","","","","<p>The experiment will resume in 8 seconds. ",""
"","html-keyboard-response","297","763272","0.0-2.0-4.89-1.89-23.89","ga4","[""L""]","","","","","","null","","","null","","","","","","","","","","<p>The experiment will resume in 7 seconds. ",""
"","html-keyboard-response","298","764274","0.0-2.0-4.89-1.89-24.89","ga4","[""L""]","","","","","","null","","","null","","","","","","","","","","<p>The experiment will resume in 6 seconds. ",""
"","html-keyboard-response","299","765276","0.0-2.0-4.89-1.89-25.89","ga4","[""L""]","","","","","","null","","","null","","","","","","","","","","<p>The experiment will resume in 5 seconds. ",""
"","html-keyboard-response","300","766277","0.0-2.0-4.89-1.89-26.89","ga4","[""L""]","","","","","","null","","","null","","","","","","","","","","<p>The experiment will resume in 4 seconds. ",""
"","html-keyboard-response","301","767279","0.0-2.0-4.89-1.89-27.89","ga4","[""L""]","","","","","","null","","","null","","","","","","","","","","<p>The experiment will resume in 3 seconds. ",""
"","html-keyboard-response","302","768280","0.0-2.0-4.89-1.89-28.89","ga4","[""L""]","","","","","","null","","","null","","","","","","","","","","<p>The experiment will resume in 2 seconds. ",""
"","html-keyboard-response","303","769282","0.0-2.0-4.89-1.89-29.89","ga4","[""L""]","","","","","","null","","","null","","","","","","","","","","<p>The experiment will resume in 1 seconds. ",""
"","psychophysics","304","776225","0.0-2.0-0.90","ga4","[""L""]","","","","","","6240","key","z","z","16.68674999999992","798","448.5","2","0","0","0","0","false","",""
"","psychophysics","305","777233","0.0-2.0-1.90","ga4","[""L""]","","","","","","null","key","null","null","16.686333333332247","798","448.5","2","0","0","0","0","","",""
"","psychophysics","306","778241","0.0-2.0-3.90-0.90","ga4","[""L""]","","","","","","null","key","null","null","16.68533898304982","798","448.5","2","0","0","0","0","","",""
"","psychophysics","307","781019","0.0-2.0-0.91","ga4","[""L""]","","","","","","2074","key","m","m","16.68587349397579","798","448.5","2","0","0","1","1","true","",""
"","psychophysics","308","782026","0.0-2.0-1.91","ga4","[""L""]","","","","","","null","key","null","null","16.68615254237301","798","448.5","2","0","0","1","1","","",""
"","psychophysics","309","783037","0.0-2.0-2.91-0.91","ga4","[""L""]","","","","","","null","key","null","null","16.68630000000121","798","448.5","2","0","0","1","1","","",""
"","psychophysics","310","788445","0.0-2.0-0.92","ga4","[""L""]","","","","","","4703","key","m","m","16.68579256965926","798","448.5","1","1","1","1","0","false","",""
"","psychophysics","311","789452","0.0-2.0-1.92","ga4","[""L""]","","","","","","null","key","null","null","16.685593220338195","798","448.5","1","1","1","1","0","","",""
"","psychophysics","312","790464","0.0-2.0-3.92-0.92","ga4","[""L""]","","","","","","null","key","null","null","16.686349999999706","798","448.5","1","1","1","1","0","","",""
"","psychophysics","313","793250","0.0-2.0-0.93","ga4","[""L""]","","","","","","2082","key","z","z","16.685704819276697","798","448.5","1","1","0","1","0","true","",""
"","psychophysics","314","794257","0.0-2.0-1.93","ga4","[""L""]","","","","","","null","key","null","null","16.685847457626565","798","448.5","1","1","0","1","0","","",""
"","psychophysics","315","795268","0.0-2.0-2.93-0.93","ga4","[""L""]","","","","","","null","key","null","null","16.68670000000081","798","448.5","1","1","0","1","0","","",""
"","psychophysics","316","797188","0.0-2.0-0.94","ga4","[""L""]","","","","","","1216","key","m","m","16.685622807017225","798","448.5","2","1","1","1","1","true","",""
"","psychophysics","317","798195","0.0-2.0-1.94","ga4","[""L""]","","","","","","null","key","null","null","16.6846101694914","798","448.5","2","1","1","1","1","","",""
"","psychophysics","318","799206","0.0-2.0-2.94-0.94","ga4","[""L""]","","","","","","null","key","null","null","16.685600000000946","798","448.5","2","1","1","1","1","","",""
"","psychophysics","319","801377","0.0-2.0-0.95","ga4","[""L""]","","","","","","1468","key","m","m","16.68555813953515","798","448.5","2","0","1","1","1","true","",""
"","psychophysics","320","802384","0.0-2.0-1.95","ga4","[""L""]","","","","","","null","key","null","null","16.68647457627082","798","448.5","2","0","1","1","1","","",""
"","psychophysics","321","803394","0.0-2.0-2.95-0.95","ga4","[""L""]","","","","","","null","key","null","null","16.6854666666671","798","448.5","2","0","1","1","1","","",""
"","psychophysics","322","805233","0.0-2.0-0.96","ga4","[""L""]","","","","","","1135","key","m","m","16.68588990825677","798","448.5","1","0","1","0","0","false","",""
"","psychophysics","323","806240","0.0-2.0-1.96","ga4","[""L""]","","","","","","null","key","null","null","16.686186440679702","798","448.5","1","0","1","0","0","","",""
"","psychophysics","324","807250","0.0-2.0-3.96-0.96","ga4","[""L""]","","","","","","null","key","null","null","16.68558333333349","798","448.5","1","0","1","0","0","","",""
"","psychophysics","325","810761","0.0-2.0-0.97","ga4","[""L""]","","","","","","2808","key","m","m","16.685578947368246","798","448.5","1","0","1","1","0","false","",""
"","psychophysics","326","811770","0.0-2.0-1.97","ga4","[""L""]","","","","","","null","key","null","null","16.687049999999967","798","448.5","1","0","1","1","0","","",""
"","psychophysics","327","812778","0.0-2.0-3.97-0.97","ga4","[""L""]","","","","","","null","key","null","null","16.686033898305496","798","448.5","1","0","1","1","0","","",""
"","psychophysics","328","817665","0.0-2.0-0.98","ga4","[""L""]","","","","","","4184","key","z","z","16.685921232876677","798","448.5","1","0","0","1","1","true","",""
"","psychophysics","329","818674","0.0-2.0-1.98","ga4","[""L""]","","","","","","null","key","null","null","16.686355932203313","798","448.5","1","0","0","1","1","","",""
"","psychophysics","330","819683","0.0-2.0-2.98-0.98","ga4","[""L""]","","","","","","null","key","null","null","16.685133333333457","798","448.5","1","0","0","1","1","","",""
"","psychophysics","331","821569","0.0-2.0-0.99","ga4","[""L""]","","","","","","1183","key","z","z","16.68561607142848","798","448.5","1","0","1","1","1","true","",""
"","psychophysics","332","822576","0.0-2.0-1.99","ga4","[""L""]","","","","","","null","key","null","null","16.686322033898588","798","448.5","1","0","1","1","1","","",""
"","psychophysics","333","823586","0.0-2.0-2.99-0.99","ga4","[""L""]","","","","","","null","key","null","null","16.68611666666693","798","448.5","1","0","1","1","1","","",""
"","psychophysics","334","827739","0.0-2.0-0.100","ga4","[""L""]","","","","","","3450","key","z","z","16.68571370967754","798","448.5","1","1","0","1","1","true","",""
"","psychophysics","335","828746","0.0-2.0-1.100","ga4","[""L""]","","","","","","null","key","null","null","16.68540677966124","798","448.5","1","1","0","1","1","","",""
"","psychophysics","336","829758","0.0-2.0-2.100-0.100","ga4","[""L""]","","","","","","null","key","null","null","16.687199999999333","798","448.5","1","1","0","1","1","","",""
"","psychophysics","337","837825","0.0-2.0-0.101","ga4","[""L""]","","","","","","7364","key","z","z","16.685726141078877","798","448.5","2","0","1","1","0","false","",""
"","psychophysics","338","838835","0.0-2.0-1.101","ga4","[""L""]","","","","","","null","key","null","null","16.685533333333055","798","448.5","2","0","1","1","0","","",""
"","psychophysics","339","839843","0.0-2.0-3.101-0.101","ga4","[""L""]","","","","","","null","key","null","null","16.68701694915229","798","448.5","2","0","1","1","0","","",""
"","psychophysics","340","845217","0.0-2.0-0.102","ga4","[""L""]","","","","","","4671","key","z","z","16.685844236759998","798","448.5","1","0","1","0","1","true","",""
"","psychophysics","341","846226","0.0-2.0-1.102","ga4","[""L""]","","","","","","null","key","null","null","16.68604999999904","798","448.5","1","0","1","0","1","","",""
"","psychophysics","342","847235","0.0-2.0-2.102-0.102","ga4","[""L""]","","","","","","null","key","null","null","16.68615254237301","798","448.5","1","0","1","0","1","","",""
"","psychophysics","343","850225","0.0-2.0-0.103","ga4","[""L""]","","","","","","2287","key","z","z","16.686202247191503","798","448.5","2","0","1","0","0","false","",""
"","psychophysics","344","851234","0.0-2.0-1.103","ga4","[""L""]","","","","","","null","key","null","null","16.68593333333265","798","448.5","2","0","1","0","0","","",""
"","psychophysics","345","852243","0.0-2.0-3.103-0.103","ga4","[""L""]","","","","","","null","key","null","null","16.68520338982896","798","448.5","2","0","1","0","0","","",""
"","psychophysics","346","857112","0.0-2.0-0.104","ga4","[""L""]","","","","","","4166","key","z","z","16.68580068728512","798","448.5","2","0","0","0","1","false","",""
"","psychophysics","347","858120","0.0-2.0-1.104","ga4","[""L""]","","","","","","null","key","null","null","16.685864406779913","798","448.5","2","0","0","0","1","","",""
"","psychophysics","348","859129","0.0-2.0-3.104-0.104","ga4","[""L""]","","","","","","null","key","null","null","16.685416666666665","798","448.5","2","0","0","0","1","","",""
"","psychophysics","349","860905","0.0-2.0-0.105","ga4","[""L""]","","","","","","1073","key","z","z","16.68633333333391","798","448.5","1","0","1","1","1","true","",""
"","psychophysics","350","861913","0.0-2.0-1.105","ga4","[""L""]","","","","","","null","key","null","null","16.685883333334157","798","448.5","1","0","1","1","1","","",""
"","psychophysics","351","862921","0.0-2.0-2.105-0.105","ga4","[""L""]","","","","","","null","key","null","null","16.684677966100843","798","448.5","1","0","1","1","1","","",""
"","psychophysics","352","870201","0.0-2.0-0.106","ga4","[""L""]","","","","","","6576","key","z","z","16.686043678160928","798","448.5","1","0","1","0","1","true","",""
"","psychophysics","353","871208","0.0-2.0-1.106","ga4","[""L""]","","","","","","null","key","null","null","16.68668333333335","798","448.5","1","0","1","0","1","","",""
"","psychophysics","354","872217","0.0-2.0-2.106-0.106","ga4","[""L""]","","","","","","null","key","null","null","16.68674576271057","798","448.5","1","0","1","0","1","","",""
"","psychophysics","355","875881","0.0-2.0-0.107","ga4","[""L""]","","","","","","2957","key","z","z","16.686027397260233","798","448.5","2","1","0","0","1","false","",""
"","psychophysics","356","876888","0.0-2.0-1.107","ga4","[""L""]","","","","","","null","key","null","null","16.68620338983108","798","448.5","2","1","0","0","1","","",""
"","psychophysics","357","877897","0.0-2.0-3.107-0.107","ga4","[""L""]","","","","","","null","key","null","null","16.686433333333117","798","448.5","2","1","0","0","1","","",""
"","psychophysics","358","882720","0.0-2.0-0.108","ga4","[""L""]","","","","","","4119","key","m","m","16.68589930555552","798","448.5","1","0","0","0","0","false","",""
"","psychophysics","359","883727","0.0-2.0-1.108","ga4","[""L""]","","","","","","null","key","null","null","16.6862372881358","798","448.5","1","0","0","0","0","","",""
"","psychophysics","360","884738","0.0-2.0-3.108-0.108","ga4","[""L""]","","","","","","null","key","null","null","16.68563333333392","798","448.5","1","0","0","0","0","","",""
"","psychophysics","361","888361","0.0-2.0-0.109","ga4","[""L""]","","","","","","2919","key","z","z","16.68590277777737","798","448.5","2","1","1","1","0","false","",""
"","psychophysics","362","889368","0.0-2.0-1.109","ga4","[""L""]","","","","","","null","key","null","null","16.686762711863917","798","448.5","2","1","1","1","0","","",""
"","psychophysics","363","890379","0.0-2.0-3.109-0.109","ga4","[""L""]","","","","","","null","key","null","null","16.686483333331612","798","448.5","2","1","1","1","0","","",""
"","psychophysics","364","896705","0.0-2.0-0.110","ga4","[""L""]","","","","","","5622","key","m","m","16.68592857142877","798","448.5","1","1","1","0","1","false","",""
"","psychophysics","365","897712","0.0-2.0-1.110","ga4","[""L""]","","","","","","null","key","null","null","16.6869322033895","798","448.5","1","1","1","0","1","","",""
"","psychophysics","366","898721","0.0-2.0-3.110-0.110","ga4","[""L""]","","","","","","null","key","null","null","16.686466666666092","798","448.5","1","1","1","0","1","","",""
"","psychophysics","367","903681","0.0-2.0-0.111","ga4","[""L""]","","","","","","4257","key","m","m","16.685692567567852","798","448.5","2","1","0","1","1","true","",""
"","psychophysics","368","904689","0.0-2.0-1.111","ga4","[""L""]","","","","","","null","key","null","null","16.685915254237983","798","448.5","2","1","0","1","1","","",""
"","psychophysics","369","905698","0.0-2.0-2.111-0.111","ga4","[""L""]","","","","","","null","key","null","null","16.686416666665657","798","448.5","2","1","0","1","1","","",""
"","psychophysics","370","907809","0.0-2.0-0.112","ga4","[""L""]","","","","","","1407","key","z","z","16.68576000000071","798","448.5","1","0","0","1","1","true","",""
"","psychophysics","371","908817","0.0-2.0-1.112","ga4","[""L""]","","","","","","null","key","null","null","16.68685000000017","798","448.5","1","0","0","1","1","","",""
"","psychophysics","372","909825","0.0-2.0-2.112-0.112","ga4","[""L""]","","","","","","null","key","null","null","16.685525423728752","798","448.5","1","0","0","1","1","","",""
"","psychophysics","373","912804","0.0-2.0-0.113","ga4","[""L""]","","","","","","2275","key","z","z","16.687365168538808","798","448.5","2","0","1","0","0","false","",""
"","psychophysics","374","913811","0.0-2.0-1.113","ga4","[""L""]","","","","","","null","key","null","null","16.686288135593866","798","448.5","2","0","1","0","0","","",""
"","psychophysics","375","914822","0.0-2.0-3.113-0.113","ga4","[""L""]","","","","","","null","key","null","null","16.685216666666868","798","448.5","2","0","1","0","0","","",""
"","psychophysics","376","917729","0.0-2.0-0.114","ga4","[""L""]","","","","","","2202","key","m","m","16.68584971098267","798","448.5","2","1","0","1","1","true","",""
"","psychophysics","377","918737","0.0-2.0-1.114","ga4","[""L""]","","","","","","null","key","null","null","16.68613559321966","798","448.5","2","1","0","1","1","","",""
"","psychophysics","378","919747","0.0-2.0-2.114-0.114","ga4","[""L""]","","","","","","null","key","null","null","16.686900000000605","798","448.5","2","1","0","1","1","","",""
"","psychophysics","379","921498","0.0-2.0-0.115","ga4","[""L""]","","","","","","1047","key","m","m","16.686086538461566","798","448.5","2","1","1","1","1","true","",""
"","psychophysics","380","922505","0.0-2.0-1.115","ga4","[""L""]","","","","","","null","key","null","null","16.686949152542848","798","448.5","2","1","1","1","1","","",""
"","psychophysics","381","923516","0.0-2.0-2.115-0.115","ga4","[""L""]","","","","","","null","key","null","null","16.68666666666783","798","448.5","2","1","1","1","1","","",""
"","psychophysics","382","926136","0.0-2.0-0.116","ga4","[""L""]","","","","","","1917","key","z","z","16.68561538461542","798","448.5","1","0","0","1","1","true","",""
"","psychophysics","383","927143","0.0-2.0-1.116","ga4","[""L""]","","","","","","null","key","null","null","16.684983050847283","798","448.5","1","0","0","1","1","","",""
"","psychophysics","384","928154","0.0-2.0-2.116-0.116","ga4","[""L""]","","","","","","null","key","null","null","16.68584999999924","798","448.5","1","0","0","1","1","","",""
"","psychophysics","385","930465","0.0-2.0-0.117","ga4","[""L""]","","","","","","1607","key","m","m","16.68587591240852","798","448.5","2","0","1","1","1","true","",""
"","psychophysics","386","931475","0.0-2.0-1.117","ga4","[""L""]","","","","","","null","key","null","null","16.68676666666676","798","448.5","2","0","1","1","1","","",""
"","psychophysics","387","932484","0.0-2.0-2.117-0.117","ga4","[""L""]","","","","","","null","key","null","null","16.68618644067773","798","448.5","2","0","1","1","1","","",""
"","psychophysics","388","934321","0.0-2.0-0.118","ga4","[""L""]","","","","","","1133","key","z","z","16.685990825687416","798","448.5","1","0","0","1","1","true","",""
"","psychophysics","389","935329","0.0-2.0-1.118","ga4","[""L""]","","","","","","null","key","null","null","16.68620000000034","798","448.5","1","0","0","1","1","","",""
"","psychophysics","390","936338","0.0-2.0-2.118-0.118","ga4","[""L""]","","","","","","null","key","null","null","16.684779661016982","798","448.5","1","0","0","1","1","","",""
"","psychophysics","391","938066","0.0-2.0-0.119","ga4","[""L""]","","","","","","1025","key","m","m","16.686271844660066","798","448.5","2","1","1","1","1","true","",""
"","psychophysics","392","939073","0.0-2.0-1.119","ga4","[""L""]","","","","","","null","key","null","null","16.686457627117477","798","448.5","2","1","1","1","1","","",""
"","psychophysics","393","940085","0.0-2.0-2.119-0.119","ga4","[""L""]","","","","","","null","key","null","null","16.686716666666324","798","448.5","2","1","1","1","1","","",""
"","psychophysics","394","945177","0.0-2.0-0.120","ga4","[""L""]","","","","","","4388","key","m","m","16.685970394736948","798","448.5","2","0","1","0","1","true","",""
"","psychophysics","395","946184","0.0-2.0-1.120","ga4","[""L""]","","","","","","null","key","null","null","16.685474576270682","798","448.5","2","0","1","0","1","","",""
"","psychophysics","396","947195","0.0-2.0-2.120-0.120","ga4","[""L""]","","","","","","null","key","null","null","16.686066666666495","798","448.5","2","0","1","0","1","","",""
"","psychophysics","397","949797","0.0-2.0-0.121","ga4","[""L""]","","","","","","1899","key","z","z","16.6857354838709","798","448.5","1","1","0","1","1","true","",""
"","psychophysics","398","950804","0.0-2.0-1.121","ga4","[""L""]","","","","","","null","key","null","null","16.685661016947638","798","448.5","1","1","0","1","1","","",""
"","psychophysics","399","951815","0.0-2.0-2.121-0.121","ga4","[""L""]","","","","","","null","key","null","null","16.68604999999904","798","448.5","1","1","0","1","1","","",""
"","psychophysics","400","953968","0.0-2.0-0.122","ga4","[""L""]","","","","","","1449","key","z","z","16.68592187500053","798","448.5","1","1","1","1","1","true","",""
"","psychophysics","401","954976","0.0-2.0-1.122","ga4","[""L""]","","","","","","null","key","null","null","16.687508474575687","798","448.5","1","1","1","1","1","","",""
"","psychophysics","402","955986","0.0-2.0-2.122-0.122","ga4","[""L""]","","","","","","null","key","null","null","16.686633333332914","798","448.5","1","1","1","1","1","","",""
"","psychophysics","403","958169","0.0-2.0-0.123","ga4","[""L""]","","","","","","1479","key","z","z","16.68596899224799","798","448.5","1","1","1","1","0","true","",""
"","psychophysics","404","959178","0.0-2.0-1.123","ga4","[""L""]","","","","","","null","key","null","null","16.686233333333316","798","448.5","1","1","1","1","0","","",""
"","psychophysics","405","960191","0.0-2.0-2.123-0.123","ga4","[""L""]","","","","","","null","key","null","null","16.686066666666495","798","448.5","1","1","1","1","0","","",""
"","psychophysics","406","965732","0.0-2.0-0.124","ga4","[""L""]","","","","","","4838","key","m","m","16.685864048338217","798","448.5","1","1","1","0","1","false","",""
"","psychophysics","407","966738","0.0-2.0-1.124","ga4","[""L""]","","","","","","null","key","null","null","16.68652542372889","798","448.5","1","1","1","0","1","","",""
"","psychophysics","408","967750","0.0-2.0-3.124-0.124","ga4","[""L""]","","","","","","null","key","null","null","16.686649999998433","798","448.5","1","1","1","0","1","","",""
"","psychophysics","409","970713","0.0-2.0-0.125","ga4","[""L""]","","","","","","2260","key","z","z","16.686034090908915","798","448.5","1","1","0","1","1","true","",""
"","psychophysics","410","971722","0.0-2.0-1.125","ga4","[""L""]","","","","","","null","key","null","null","16.68593333333265","798","448.5","1","1","0","1","1","","",""
"","psychophysics","411","972730","0.0-2.0-2.125-0.125","ga4","[""L""]","","","","","","null","key","null","null","16.686254237287173","798","448.5","1","1","0","1","1","","",""
"","psychophysics","412","976201","0.0-2.0-0.126","ga4","[""L""]","","","","","","2768","key","z","z","16.686149758453805","798","448.5","1","0","1","0","1","true","",""
"","psychophysics","413","977210","0.0-2.0-1.126","ga4","[""L""]","","","","","","null","key","null","null","16.6867499999993","798","448.5","1","0","1","0","1","","",""
"","psychophysics","414","978219","0.0-2.0-2.126-0.126","ga4","[""L""]","","","","","","null","key","null","null","16.685016949152004","798","448.5","1","0","1","0","1","","",""
"","psychophysics","415","980553","0.0-2.0-0.127","ga4","[""L""]","","","","","","1631","key","z","z","16.68612230215858","798","448.5","1","0","1","1","1","true","",""
"","psychophysics","416","981559","0.0-2.0-1.127","ga4","[""L""]","","","","","","null","key","null","null","16.686016949152148","798","448.5","1","0","1","1","1","","",""
"","psychophysics","417","982568","0.0-2.0-2.127-0.127","ga4","[""L""]","","","","","","null","key","null","null","16.68658333333248","798","448.5","1","0","1","1","1","","",""
"","psychophysics","418","987041","0.0-2.0-0.128","ga4","[""L""]","","","","","","3769","key","z","z","16.686101123595556","798","448.5","1","1","0","1","0","true","",""
"","psychophysics","419","988048","0.0-2.0-1.128","ga4","[""L""]","","","","","","null","key","null","null","16.686033898305496","798","448.5","1","1","0","1","0","","",""
"","psychophysics","420","989059","0.0-2.0-2.128-0.128","ga4","[""L""]","","","","","","null","key","null","null","16.685999999998604","798","448.5","1","1","0","1","0","","",""
"","psychophysics","421","992552","0.0-2.0-0.129","ga4","[""L""]","","","","","","2790","key","m","m","16.685884615384566","798","448.5","1","1","0","0","1","false","",""
"","psychophysics","422","993563","0.0-2.0-1.129","ga4","[""L""]","","","","","","null","key","null","null","16.685883333332217","798","448.5","1","1","0","0","1","","",""
"","psychophysics","423","994571","0.0-2.0-3.129-0.129","ga4","[""L""]","","","","","","null","key","null","null","16.686254237289145","798","448.5","1","1","0","0","1","","",""
"","psychophysics","424","1000401","0.0-2.0-0.130","ga4","[""L""]","","","","","","5127","key","m","m","16.68601149425276","798","448.5","2","1","1","1","1","true","",""
"","psychophysics","425","1001408","0.0-2.0-1.130","ga4","[""L""]","","","","","","null","key","null","null","16.685866666666698","798","448.5","2","1","1","1","1","","",""
"","psychophysics","426","1002416","0.0-2.0-2.130-0.130","ga4","[""L""]","","","","","","null","key","null","null","16.686762711865892","798","448.5","2","1","1","1","1","","",""
"","psychophysics","427","1011601","0.0-2.0-0.131","ga4","[""L""]","","","","","","8481","key","m","m","16.6858654545455","798","448.5","1","0","0","0","1","false","",""
"","psychophysics","428","1012608","0.0-2.0-1.131","ga4","[""L""]","","","","","","null","key","null","null","16.68613559321966","798","448.5","1","0","0","0","1","","",""
"","psychophysics","429","1013619","0.0-2.0-3.131-0.131","ga4","[""L""]","","","","","","null","key","null","null","16.68540000000115","798","448.5","1","0","0","0","1","","",""
"","psychophysics","430","1016776","0.0-2.0-0.132","ga4","[""L""]","","","","","","2454","key","z","z","16.685829787233974","798","448.5","1","1","0","1","1","true","",""
"","psychophysics","431","1017783","0.0-2.0-1.132","ga4","[""L""]","","","","","","null","key","null","null","16.686644067796404","798","448.5","1","1","0","1","1","","",""
"","psychophysics","432","1018792","0.0-2.0-2.132-0.132","ga4","[""L""]","","","","","","null","key","null","null","16.687299999998263","798","448.5","1","1","0","1","1","","",""
"","psychophysics","433","1021336","0.0-2.0-0.133","ga4","[""L""]","","","","","","1839","key","z","z","16.68601324503381","798","448.5","1","1","1","1","1","true","",""
"","psychophysics","434","1022346","0.0-2.0-1.133","ga4","[""L""]","","","","","","null","key","null","null","16.68603333333352","798","448.5","1","1","1","1","1","","",""
"","psychophysics","435","1023355","0.0-2.0-2.133-0.133","ga4","[""L""]","","","","","","null","key","null","null","16.685423728812612","798","448.5","1","1","1","1","1","","",""
"","psychophysics","436","1024961","0.0-2.0-0.134","ga4","[""L""]","","","","","","902","key","z","z","16.685915789473803","798","448.5","1","0","0","1","1","true","",""
"","psychophysics","437","1025969","0.0-2.0-1.134","ga4","[""L""]","","","","","","null","key","null","null","16.68563333333392","798","448.5","1","0","0","1","1","","",""
"","psychophysics","438","1026978","0.0-2.0-2.134-0.134","ga4","[""L""]","","","","","","null","key","null","null","16.686423728812755","798","448.5","1","0","0","1","1","","",""
"","psychophysics","439","1028544","0.0-2.0-0.135","ga4","[""L""]","","","","","","863","key","z","z","16.685752688172293","798","448.5","2","0","1","0","0","false","",""
"","psychophysics","440","1029554","0.0-2.0-1.135","ga4","[""L""]","","","","","","null","key","null","null","16.68611666666693","798","448.5","2","0","1","0","0","","",""
"","psychophysics","441","1030565","0.0-2.0-3.135-0.135","ga4","[""L""]","","","","","","null","key","null","null","16.685338983051796","798","448.5","2","0","1","0","0","","",""
"","psychophysics","442","1033080","0.0-2.0-0.136","ga4","[""L""]","","","","","","1813","key","z","z","16.686106666667232","798","448.5","2","1","0","0","1","false","",""
"","psychophysics","443","1034087","0.0-2.0-1.136","ga4","[""L""]","","","","","","null","key","null","null","16.686067796610217","798","448.5","2","1","0","0","1","","",""
"","psychophysics","444","1035096","0.0-2.0-3.136-0.136","ga4","[""L""]","","","","","","null","key","null","null","16.686483333333552","798","448.5","2","1","0","0","1","","",""
"","psychophysics","445","1037889","0.0-2.0-0.137","ga4","[""L""]","","","","","","2089","key","m","m","16.685753012047968","798","448.5","2","1","0","1","0","true","",""
"","psychophysics","446","1038898","0.0-2.0-1.137","ga4","[""L""]","","","","","","null","key","null","null","16.68550000000008","798","448.5","2","1","0","1","0","","",""
"","psychophysics","447","1039907","0.0-2.0-2.137-0.137","ga4","[""L""]","","","","","","null","key","null","null","16.6846101694914","798","448.5","2","1","0","1","0","","",""
"","psychophysics","448","1041803","0.0-2.0-0.138","ga4","[""L""]","","","","","","1191","key","z","z","16.686079646017717","798","448.5","1","1","0","1","1","true","",""
"","psychophysics","449","1042810","0.0-2.0-1.138","ga4","[""L""]","","","","","","null","key","null","null","16.68544067796596","798","448.5","1","1","0","1","1","","",""
"","psychophysics","450","1043821","0.0-2.0-2.138-0.138","ga4","[""L""]","","","","","","null","key","null","null","16.68678333333422","798","448.5","1","1","0","1","1","","",""
"","psychophysics","451","1046442","0.0-2.0-0.139","ga4","[""L""]","","","","","","1918","key","m","m","16.686038461538445","798","448.5","2","1","1","1","1","true","",""
"","psychophysics","452","1047449","0.0-2.0-1.139","ga4","[""L""]","","","","","","null","key","null","null","16.68640677966138","798","448.5","2","1","1","1","1","","",""
"","psychophysics","453","1048459","0.0-2.0-2.139-0.139","ga4","[""L""]","","","","","","null","key","null","null","16.685683333332417","798","448.5","2","1","1","1","1","","",""
"","psychophysics","454","1050385","0.0-2.0-0.140","ga4","[""L""]","","","","","","1222","key","m","m","16.685877192981966","798","448.5","2","1","1","1","1","true","",""
"","psychophysics","455","1051392","0.0-2.0-1.140","ga4","[""L""]","","","","","","null","key","null","null","16.686728813559196","798","448.5","2","1","1","1","1","","",""
"","psychophysics","456","1052401","0.0-2.0-2.140-0.140","ga4","[""L""]","","","","","","null","key","null","null","16.68500000000155","798","448.5","2","1","1","1","1","","",""
"","psychophysics","457","1054100","0.0-2.0-0.141","ga4","[""L""]","","","","","","997","key","z","z","16.685485148514243","798","448.5","1","1","0","1","1","true","",""
"","psychophysics","458","1055107","0.0-2.0-1.141","ga4","[""L""]","","","","","","null","key","null","null","16.686389830508034","798","448.5","1","1","0","1","1","","",""
"","psychophysics","459","1056118","0.0-2.0-2.141-0.141","ga4","[""L""]","","","","","","null","key","null","null","16.686999999999536","798","448.5","1","1","0","1","1","","",""
"","psychophysics","460","1058096","0.0-2.0-0.142","ga4","[""L""]","","","","","","1274","key","m","m","16.685452991451783","798","448.5","2","1","1","1","1","true","",""
"","psychophysics","461","1059105","0.0-2.0-1.142","ga4","[""L""]","","","","","","null","key","null","null","16.686349999997766","798","448.5","2","1","1","1","1","","",""
"","psychophysics","462","1060114","0.0-2.0-2.142-0.142","ga4","[""L""]","","","","","","null","key","null","null","16.686779661017265","798","448.5","2","1","1","1","1","","",""
"","psychophysics","463","1061592","0.0-2.0-0.143","ga4","[""L""]","","","","","","775","key","z","z","16.68620454545387","798","448.5","1","0","0","1","1","true","",""
"","psychophysics","464","1062599","0.0-2.0-1.143","ga4","[""L""]","","","","","","null","key","null","null","16.685813559321844","798","448.5","1","0","0","1","1","","",""
"","psychophysics","465","1063610","0.0-2.0-2.143-0.143","ga4","[""L""]","","","","","","null","key","null","null","16.686333333336126","798","448.5","1","0","0","1","1","","",""
"","psychophysics","466","1065196","0.0-2.0-0.144","ga4","[""L""]","","","","","","883","key","m","m","16.685734042553527","798","448.5","2","1","1","1","1","true","",""
"","psychophysics","467","1066203","0.0-2.0-1.144","ga4","[""L""]","","","","","","null","key","null","null","16.686779661017265","798","448.5","2","1","1","1","1","","",""
"","psychophysics","468","1067214","0.0-2.0-2.144-0.144","ga4","[""L""]","","","","","","null","key","null","null","16.686349999997766","798","448.5","2","1","1","1","1","","",""
"","psychophysics","469","1068656","0.0-2.0-0.145","ga4","[""L""]","","","","","","739","key","z","z","16.68521176470608","798","448.5","2","0","1","0","0","false","",""
"","psychophysics","470","1069667","0.0-2.0-1.145","ga4","[""L""]","","","","","","null","key","null","null","16.686450000002516","798","448.5","2","0","1","0","0","","",""
"","psychophysics","471","1070675","0.0-2.0-3.145-0.145","ga4","[""L""]","","","","","","null","key","null","null","16.686016949150176","798","448.5","2","0","1","0","0","","",""
"","psychophysics","472","1072800","0.0-2.0-0.146","ga4","[""L""]","","","","","","1422","key","m","m","16.686150793651386","798","448.5","2","1","0","1","1","true","",""
"","psychophysics","473","1073808","0.0-2.0-1.146","ga4","[""L""]","","","","","","null","key","null","null","16.683583333331626","798","448.5","2","1","0","1","1","","",""
"","psychophysics","474","1074817","0.0-2.0-2.146-0.146","ga4","[""L""]","","","","","","null","key","null","null","16.686898305084778","798","448.5","2","1","0","1","1","","",""
"","psychophysics","475","1079688","0.0-2.0-0.147","ga4","[""L""]","","","","","","4164","key","z","z","16.68570446735408","798","448.5","2","0","0","0","1","false","",""
"","psychophysics","476","1080696","0.0-2.0-1.147","ga4","[""L""]","","","","","","null","key","null","null","16.686083333333954","798","448.5","2","0","0","0","1","","",""
"","psychophysics","477","1081705","0.0-2.0-3.147-0.147","ga4","[""L""]","","","","","","null","key","null","null","16.686627118643056","798","448.5","2","0","0","0","1","","",""
"","psychophysics","478","1084920","0.0-2.0-0.148","ga4","[""L""]","","","","","","2511","key","m","m","16.686197916666668","798","448.5","1","1","0","0","1","false","",""
"","psychophysics","479","1085927","0.0-2.0-1.148","ga4","[""L""]","","","","","","null","key","null","null","16.685457627119305","798","448.5","1","1","0","0","1","","",""
"","psychophysics","480","1086937","0.0-2.0-3.148-0.148","ga4","[""L""]","","","","","","null","key","null","null","16.68613333333439","798","448.5","1","1","0","0","1","","",""
"","psychophysics","481","1088768","0.0-2.0-0.149","ga4","[""L""]","","","","","","1128","key","z","z","16.68568518518522","798","448.5","1","0","0","1","1","true","",""
"","psychophysics","482","1089776","0.0-2.0-1.149","ga4","[""L""]","","","","","","null","key","null","null","16.68695000000298","798","448.5","1","0","0","1","1","","",""
"","psychophysics","483","1090784","0.0-2.0-2.149-0.149","ga4","[""L""]","","","","","","null","key","null","null","16.685677966102958","798","448.5","1","0","0","1","1","","",""
"","psychophysics","484","1094688","0.0-2.0-0.150","ga4","[""L""]","","","","","","3200","key","m","m","16.685974248926765","798","448.5","1","1","0","0","1","false","",""
"","psychophysics","485","1095696","0.0-2.0-1.150","ga4","[""L""]","","","","","","null","key","null","null","16.686716666666324","798","448.5","1","1","0","0","1","","",""
"","psychophysics","486","1096705","0.0-2.0-3.150-0.150","ga4","[""L""]","","","","","","null","key","null","null","16.686661016949753","798","448.5","1","1","0","0","1","","",""
"","psychophysics","487","1100737","0.0-2.0-0.151","ga4","[""L""]","","","","","","3329","key","z","z","16.68602074688799","798","448.5","2","0","1","1","0","false","",""
"","psychophysics","488","1101743","0.0-2.0-1.151","ga4","[""L""]","","","","","","null","key","null","null","16.686118644066312","798","448.5","2","0","1","1","0","","",""
"","psychophysics","489","1102754","0.0-2.0-3.151-0.151","ga4","[""L""]","","","","","","null","key","null","null","16.685699999999876","798","448.5","2","0","1","1","0","","",""
"","psychophysics","490","1106460","0.0-2.0-0.152","ga4","[""L""]","","","","","","3002","key","m","m","16.68557918551947","798","448.5","2","1","0","1","0","true","",""
"","psychophysics","491","1107468","0.0-2.0-1.152","ga4","[""L""]","","","","","","null","key","null","null","16.685305084749047","798","448.5","2","1","0","1","0","","",""
"","psychophysics","492","1108478","0.0-2.0-2.152-0.152","ga4","[""L""]","","","","","","null","key","null","null","16.686266666666295","798","448.5","2","1","0","1","0","","",""
"","psychophysics","493","1112240","0.0-2.0-0.153","ga4","[""L""]","","","","","","3058","key","m","m","16.685946428571437","798","448.5","2","1","1","1","1","true","",""
"","psychophysics","494","1113250","0.0-2.0-1.153","ga4","[""L""]","","","","","","null","key","null","null","16.686066666664555","798","448.5","2","1","1","1","1","","",""
"","psychophysics","495","1114259","0.0-2.0-2.153-0.153","ga4","[""L""]","","","","","","null","key","null","null","16.684983050849258","798","448.5","2","1","1","1","1","","",""
"","psychophysics","496","1117122","0.0-2.0-0.154","ga4","[""L""]","","","","","","2160","key","z","z","16.686228070176636","798","448.5","1","0","1","0","1","true","",""
"","psychophysics","497","1118130","0.0-2.0-1.154","ga4","[""L""]","","","","","","null","key","null","null","16.68637288135271","798","448.5","1","0","1","0","1","","",""
"","psychophysics","498","1119140","0.0-2.0-2.154-0.154","ga4","[""L""]","","","","","","null","key","null","null","16.68658333333054","798","448.5","1","0","1","0","1","","",""
"","psychophysics","499","1122064","0.0-2.0-0.155","ga4","[""L""]","","","","","","2218","key","z","z","16.68583908045916","798","448.5","2","0","0","0","0","false","",""
"","psychophysics","500","1123072","0.0-2.0-1.155","ga4","[""L""]","","","","","","null","key","null","null","16.68664406779838","798","448.5","2","0","0","0","0","","",""
"","psychophysics","501","1124080","0.0-2.0-3.155-0.155","ga4","[""L""]","","","","","","null","key","null","null","16.68593333333265","798","448.5","2","0","0","0","0","","",""
"","psychophysics","502","1131832","0.0-2.0-0.156","ga4","[""L""]","","","","","","7047","key","z","z","16.685954643628655","798","448.5","2","0","0","0","1","false","",""
"","psychophysics","503","1132840","0.0-2.0-1.156","ga4","[""L""]","","","","","","null","key","null","null","16.68613333333439","798","448.5","2","0","0","0","1","","",""
"","psychophysics","504","1133849","0.0-2.0-3.156-0.156","ga4","[""L""]","","","","","","null","key","null","null","16.686305084747215","798","448.5","2","0","0","0","1","","",""
"","psychophysics","505","1136945","0.0-2.0-0.157","ga4","[""L""]","","","","","","2394","key","m","m","16.685935135135377","798","448.5","2","0","1","1","1","true","",""
"","psychophysics","506","1137953","0.0-2.0-1.157","ga4","[""L""]","","","","","","null","key","null","null","16.686305084743267","798","448.5","2","0","1","1","1","","",""
"","psychophysics","507","1138963","0.0-2.0-2.157-0.157","ga4","[""L""]","","","","","","null","key","null","null","16.686066666668435","798","448.5","2","0","1","1","1","","",""
"","psychophysics","508","1143424","0.0-2.0-0.158","ga4","[""L""]","","","","","","3757","key","z","z","16.685669172932464","798","448.5","2","0","0","0","1","false","",""
"","psychophysics","509","1144431","0.0-2.0-1.158","ga4","[""L""]","","","","","","null","key","null","null","16.686406779659407","798","448.5","2","0","0","0","1","","",""
"","psychophysics","510","1145441","0.0-2.0-3.158-0.158","ga4","[""L""]","","","","","","null","key","null","null","16.68594999999817","798","448.5","2","0","0","0","1","","",""
"","psychophysics","511","1151929","0.0-2.0-0.159","ga4","[""L""]","","","","","","5785","key","z","z","16.685956185567193","798","448.5","1","1","0","1","1","true","",""
"","psychophysics","512","1152936","0.0-2.0-1.159","ga4","[""L""]","","","","","","null","key","null","null","16.68699999999697","798","448.5","1","1","0","1","1","","",""
"","psychophysics","513","1153948","0.0-2.0-2.159-0.159","ga4","[""L""]","","","","","","null","key","null","null","16.685833333335662","798","448.5","1","1","0","1","1","","",""
"","psychophysics","514","1160172","0.0-2.0-0.160","ga4","[""L""]","","","","","","5520","key","z","z","16.685932795698655","798","448.5","1","1","1","1","0","true","",""
"","psychophysics","515","1161179","0.0-2.0-1.160","ga4","[""L""]","","","","","","null","key","null","null","16.68589830508661","798","448.5","1","1","1","1","0","","",""
"","psychophysics","516","1162190","0.0-2.0-2.160-0.160","ga4","[""L""]","","","","","","null","key","null","null","16.685999999998604","798","448.5","1","1","1","1","0","","",""
"","psychophysics","517","1175106","0.0-2.0-0.161","ga4","[""L""]","","","","","","12212","key","z","z","16.685818887451532","798","448.5","2","0","1","1","0","false","",""
"","psychophysics","518","1176113","0.0-2.0-1.161","ga4","[""L""]","","","","","","null","key","null","null","16.686355932205284","798","448.5","2","0","1","1","0","","",""
"","psychophysics","519","1177124","0.0-2.0-3.161-0.161","ga4","[""L""]","","","","","","null","key","null","null","16.687200000001273","798","448.5","2","0","1","1","0","","",""
"","psychophysics","520","1184120","0.0-2.0-0.162","ga4","[""L""]","","","","","","6292","key","m","m","16.68597846889911","798","448.5","2","0","1","0","1","true","",""
"","psychophysics","521","1185129","0.0-2.0-1.162","ga4","[""L""]","","","","","","null","key","null","null","16.686762711861945","798","448.5","2","0","1","0","1","","",""
"","psychophysics","522","1186138","0.0-2.0-2.162-0.162","ga4","[""L""]","","","","","","null","key","null","null","16.68685000000211","798","448.5","2","0","1","0","1","","",""
"","psychophysics","523","1188587","0.0-2.0-0.163","ga4","[""L""]","","","","","","1746","key","z","z","16.6861575342466","798","448.5","1","1","1","0","1","true","",""
"","psychophysics","524","1189595","0.0-2.0-1.163","ga4","[""L""]","","","","","","null","key","null","null","16.685610169493515","798","448.5","1","1","1","0","1","","",""
"","psychophysics","525","1190606","0.0-2.0-2.163-0.163","ga4","[""L""]","","","","","","null","key","null","null","16.68670000000081","798","448.5","1","1","1","0","1","","",""
"","psychophysics","526","1193903","0.0-2.0-0.164","ga4","[""L""]","","","","","","2594","key","m","m","16.685596938775994","798","448.5","2","0","1","1","1","true","",""
"","psychophysics","527","1194911","0.0-2.0-1.164","ga4","[""L""]","","","","","","null","key","null","null","16.68620000000034","798","448.5","2","0","1","1","1","","",""
"","psychophysics","528","1195919","0.0-2.0-2.164-0.164","ga4","[""L""]","","","","","","null","key","null","null","16.68533898304785","798","448.5","2","0","1","1","1","","",""
"","psychophysics","529","1201328","0.0-2.0-0.165","ga4","[""L""]","","","","","","4705","key","m","m","16.685978328173363","798","448.5","1","1","0","0","1","false","",""
"","psychophysics","530","1202336","0.0-2.0-1.165","ga4","[""L""]","","","","","","null","key","null","null","16.68686666666763","798","448.5","1","1","0","0","1","","",""
"","psychophysics","531","1203345","0.0-2.0-3.165-0.165","ga4","[""L""]","","","","","","null","key","null","null","16.685186440677587","798","448.5","1","1","0","0","1","","",""
"","psychophysics","532","1207967","0.0-2.0-0.166","ga4","[""L""]","","","","","","3919","key","z","z","16.68599637681146","798","448.5","2","0","0","0","1","false","",""
"","psychophysics","533","1208977","0.0-2.0-1.166","ga4","[""L""]","","","","","","null","key","null","null","16.685516666667535","798","448.5","2","0","0","0","1","","",""
"","psychophysics","534","1209986","0.0-2.0-3.166-0.166","ga4","[""L""]","","","","","","null","key","null","null","16.685966101696053","798","448.5","2","0","0","0","1","","",""
"","psychophysics","535","1214360","0.0-2.0-0.167","ga4","[""L""]","","","","","","3670","key","m","m","16.685988505747368","798","448.5","2","1","0","1","1","true","",""
"","psychophysics","536","1215367","0.0-2.0-1.167","ga4","[""L""]","","","","","","null","key","null","null","16.68674999999736","798","448.5","2","1","0","1","1","","",""
"","psychophysics","537","1216376","0.0-2.0-2.167-0.167","ga4","[""L""]","","","","","","null","key","null","null","16.684711864407536","798","448.5","2","1","0","1","1","","",""
"","psychophysics","538","1229543","0.0-2.0-0.168","ga4","[""L""]","","","","","","12464","key","m","m","16.68581598984795","798","448.5","1","0","0","1","0","false","",""
"","psychophysics","539","1230551","0.0-2.0-1.168","ga4","[""L""]","","","","","","null","key","null","null","16.68621666666586","798","448.5","1","0","0","1","0","","",""
"","psychophysics","540","1231560","0.0-2.0-3.168-0.168","ga4","[""L""]","","","","","","null","key","null","null","16.685813559321844","798","448.5","1","0","0","1","0","","",""
"","psychophysics","541","1234707","0.0-2.0-0.169","ga4","[""L""]","","","","","","2444","key","z","z","16.685813829787026","798","448.5","1","0","0","1","1","true","",""
"","psychophysics","542","1235714","0.0-2.0-1.169","ga4","[""L""]","","","","","","null","key","null","null","16.685491525422055","798","448.5","1","0","0","1","1","","",""
"","psychophysics","543","1236725","0.0-2.0-2.169-0.169","ga4","[""L""]","","","","","","null","key","null","null","16.685783333335227","798","448.5","1","0","0","1","1","","",""
"","psychophysics","544","1239663","0.0-2.0-0.170","ga4","[""L""]","","","","","","2234","key","z","z","16.68556571428664","798","448.5","2","1","1","0","1","false","",""
"","psychophysics","545","1240671","0.0-2.0-1.170","ga4","[""L""]","","","","","","null","key","null","null","16.6864406779661","798","448.5","2","1","1","0","1","","",""
"","psychophysics","546","1241681","0.0-2.0-3.170-0.170","ga4","[""L""]","","","","","","null","key","null","null","16.685883333332217","798","448.5","2","1","1","0","1","","",""
"","psychophysics","547","1244618","0.0-2.0-0.171","ga4","[""L""]","","","","","","2233","key","z","z","16.685462857142888","798","448.5","1","0","1","0","1","true","",""
"","psychophysics","548","1245625","0.0-2.0-1.171","ga4","[""L""]","","","","","","null","key","null","null","16.686135593221632","798","448.5","1","0","1","0","1","","",""
"","psychophysics","549","1246637","0.0-2.0-2.171-0.171","ga4","[""L""]","","","","","","null","key","null","null","16.68631666666673","798","448.5","1","0","1","0","1","","",""
"","psychophysics","550","1249311","0.0-2.0-0.172","ga4","[""L""]","","","","","","1970","key","m","m","16.685622641509223","798","448.5","2","1","1","1","1","true","",""
"","psychophysics","551","1250319","0.0-2.0-1.172","ga4","[""L""]","","","","","","null","key","null","null","16.685338983051796","798","448.5","2","1","1","1","1","","",""
"","psychophysics","552","1251328","0.0-2.0-2.172-0.172","ga4","[""L""]","","","","","","null","key","null","null","16.68685000000211","798","448.5","2","1","1","1","1","","",""
"","psychophysics","553","1254832","0.0-2.0-0.173","ga4","[""L""]","","","","","","2801","key","z","z","16.68577033492879","798","448.5","2","0","0","0","1","false","",""
"","psychophysics","554","1255839","0.0-2.0-1.173","ga4","[""L""]","","","","","","null","key","null","null","16.685542372880125","798","448.5","2","0","0","0","1","","",""
"","psychophysics","555","1256850","0.0-2.0-3.173-0.173","ga4","[""L""]","","","","","","null","key","null","null","16.68594999999817","798","448.5","2","0","0","0","1","","",""
"","psychophysics","556","1261664","0.0-2.0-0.174","ga4","[""L""]","","","","","","4110","key","z","z","16.68589895470425","798","448.5","1","0","1","0","1","true","",""
"","psychophysics","557","1262672","0.0-2.0-1.174","ga4","[""L""]","","","","","","null","key","null","null","16.685950000002048","798","448.5","1","0","1","0","1","","",""
"","psychophysics","558","1263680","0.0-2.0-2.174-0.174","ga4","[""L""]","","","","","","null","key","null","null","16.685864406779913","798","448.5","1","0","1","0","1","","",""
"","psychophysics","559","1271667","0.0-2.0-0.175","ga4","[""L""]","","","","","","7284","key","z","z","16.68586610878621","798","448.5","2","0","0","0","1","false","",""
"","psychophysics","560","1272674","0.0-2.0-1.175","ga4","[""L""]","","","","","","null","key","null","null","16.685898305082663","798","448.5","2","0","0","0","1","","",""
"","psychophysics","561","1273685","0.0-2.0-3.175-0.175","ga4","[""L""]","","","","","","null","key","null","null","16.686349999997766","798","448.5","2","0","0","0","1","","",""
"","psychophysics","562","1281929","0.0-2.0-0.176","ga4","[""L""]","","","","","","7539","key","z","z","16.68567951318466","798","448.5","1","1","1","1","0","true","",""
"","psychophysics","563","1282936","0.0-2.0-1.176","ga4","[""L""]","","","","","","null","key","null","null","16.68615254237301","798","448.5","1","1","1","1","0","","",""
"","psychophysics","564","1283946","0.0-2.0-2.176-0.176","ga4","[""L""]","","","","","","null","key","null","null","16.686733333335724","798","448.5","1","1","1","1","0","","",""
"","psychophysics","565","1286480","0.0-2.0-0.177","ga4","[""L""]","","","","","","1829","key","m","m","16.68577333333281","798","448.5","1","1","0","0","0","false","",""
"","psychophysics","566","1287487","0.0-2.0-1.177","ga4","[""L""]","","","","","","null","key","null","null","16.686816666667195","798","448.5","1","1","0","0","0","","",""
"","psychophysics","567","1288496","0.0-2.0-3.177-0.177","ga4","[""L""]","","","","","","null","key","null","null","16.686711864403875","798","448.5","1","1","0","0","0","","",""
"","psychophysics","568","1290955","0.0-2.0-0.178","ga4","[""L""]","","","","","","1752","key","z","z","16.686142857142148","798","448.5","1","0","0","1","1","true","",""
"","psychophysics","569","1291963","0.0-2.0-1.178","ga4","[""L""]","","","","","","null","key","null","null","16.685983050847426","798","448.5","1","0","0","1","1","","",""
"","psychophysics","570","1292974","0.0-2.0-2.178-0.178","ga4","[""L""]","","","","","","null","key","null","null","16.689500000001864","798","448.5","1","0","0","1","1","","",""
"","psychophysics","571","1295512","0.0-2.0-0.179","ga4","[""L""]","","","","","","1834","key","z","z","16.685668874171174","798","448.5","1","0","0","1","1","true","",""
"","psychophysics","572","1296519","0.0-2.0-1.179","ga4","[""L""]","","","","","","null","key","null","null","16.686508474575547","798","448.5","1","0","0","1","1","","",""
