"success","trial_type","trial_index","time_elapsed","internal_node_id","subject","condition","timeout","failed_images","failed_audio","failed_video","view_history","rt","response_type","key_press","response","avg_frame_time","center_x","center_y","outcome","p1conf","p2conf","p1rslt","p2rslt","correct","stimulus","question_order"
"true","fullscreen","0","2511","0.0-0.0-0.0","btm","[""L""]","","","","","","","","","","","","","","","","","","","",""
"true","preload","1","2517","0.0-0.0-1.0","btm","[""L""]","false","[]","[]","[]","","","","","","","","","","","","","","","",""
"","instructions","2","113232","0.0-1.0","btm","[""L""]","","","","","[{""page_index"":0,""viewing_time"":55609},{""page_index"":1,""viewing_time"":24512},{""page_index"":2,""viewing_time"":30592}]","110714","","","","","","","","","","","","","",""
"","psychophysics","3","119694","0.0-2.0-0.0","btm","[""L""]","","","","","","5749","key","z","z","16.685883720930246","798","448.5","2","0","0","0","0","false","",""
"","psychophysics","4","120707","0.0-2.0-1.0","btm","[""L""]","","","","","","null","key","null","null","16.68626666666678","798","448.5","2","0","0","0","0","","",""
"","psychophysics","5","121718","0.0-2.0-3.0-0.0","btm","[""L""]","","","","","","null","key","null","null","16.686000000000032","798","448.5","2","0","0","0","0","","",""
"","psychophysics","6","125469","0.0-2.0-0.1","btm","[""L""]","","","","","","3041","key","m","m","16.686058035714332","798","448.5","1","0","1","0","1","false","",""
"","psychophysics","7","126480","0.0-2.0-1.1","btm","[""L""]","","","","","","null","key","null","null","16.686666666666618","798","448.5","1","0","1","0","1","","",""
"","psychophysics","8","127491","0.0-2.0-3.1-0.1","btm","[""L""]","","","","","","null","key","null","null","16.68625423728816","798","448.5","1","0","1","0","1","","",""
"","psychophysics","9","130020","0.0-2.0-0.2","btm","[""L""]","","","","","","1825","key","m","m","16.686112582781476","798","448.5","2","0","1","1","1","true","",""
"","psychophysics","10","131030","0.0-2.0-1.2","btm","[""L""]","","","","","","null","key","null","null","16.6872542372883","798","448.5","2","0","1","1","1","","",""
"","psychophysics","11","132040","0.0-2.0-2.2-0.2","btm","[""L""]","","","","","","null","key","null","null","16.686566666666476","798","448.5","2","0","1","1","1","","",""
"","psychophysics","12","134828","0.0-2.0-0.3","btm","[""L""]","","","","","","2084","key","m","m","16.6859819277108","798","448.5","2","1","1","1","1","true","",""
"","psychophysics","13","135841","0.0-2.0-1.3","btm","[""L""]","","","","","","null","key","null","null","16.68660000000042","798","448.5","2","1","1","1","1","","",""
"","psychophysics","14","136850","0.0-2.0-2.3-0.3","btm","[""L""]","","","","","","null","key","null","null","16.68618644067773","798","448.5","2","1","1","1","1","","",""
"","psychophysics","15","139996","0.0-2.0-0.4","btm","[""L""]","","","","","","2442","key","m","m","16.685952127659586","798","448.5","1","0","0","1","0","false","",""
"","psychophysics","16","141004","0.0-2.0-1.4","btm","[""L""]","","","","","","null","key","null","null","16.685050847457713","798","448.5","1","0","0","1","0","","",""
"","psychophysics","17","142016","0.0-2.0-3.4-0.4","btm","[""L""]","","","","","","null","key","null","null","16.68693333333358","798","448.5","1","0","0","1","0","","",""
"","psychophysics","18","144372","0.0-2.0-0.5","btm","[""L""]","","","","","","1653","key","m","m","16.686407142857206","798","448.5","2","0","1","1","0","true","",""
"","psychophysics","19","145379","0.0-2.0-1.5","btm","[""L""]","","","","","","null","key","null","null","16.686983050847076","798","448.5","2","0","1","1","0","","",""
"","psychophysics","20","146389","0.0-2.0-2.5-0.5","btm","[""L""]","","","","","","null","key","null","null","16.686566666666476","798","448.5","2","0","1","1","0","","",""
"","psychophysics","21","148884","0.0-2.0-0.6","btm","[""L""]","","","","","","1791","key","z","z","16.686128378378516","798","448.5","1","0","1","1","1","true","",""
"","psychophysics","22","149892","0.0-2.0-1.6","btm","[""L""]","","","","","","null","key","null","null","16.68646666666658","798","448.5","1","0","1","1","1","","",""
"","psychophysics","23","150901","0.0-2.0-2.6-0.6","btm","[""L""]","","","","","","null","key","null","null","16.684508474576248","798","448.5","1","0","1","1","1","","",""
"","psychophysics","24","152700","0.0-2.0-0.7","btm","[""L""]","","","","","","1095","key","z","z","16.686644859812994","798","448.5","1","1","0","1","1","true","",""
"","psychophysics","25","153711","0.0-2.0-1.7","btm","[""L""]","","","","","","null","key","null","null","16.68676666666676","798","448.5","1","1","0","1","1","","",""
"","psychophysics","26","154720","0.0-2.0-2.7-0.7","btm","[""L""]","","","","","","null","key","null","null","16.685644067796755","798","448.5","1","1","0","1","1","","",""
"","psychophysics","27","156949","0.0-2.0-0.8","btm","[""L""]","","","","","","1525","key","m","m","16.686052631578914","798","448.5","1","0","1","0","1","false","",""
"","psychophysics","28","157957","0.0-2.0-1.8","btm","[""L""]","","","","","","null","key","null","null","16.68610169491494","798","448.5","1","0","1","0","1","","",""
"","psychophysics","29","158967","0.0-2.0-3.8-0.8","btm","[""L""]","","","","","","null","key","null","null","16.68620000000034","798","448.5","1","0","1","0","1","","",""
"","psychophysics","30","162980","0.0-2.0-0.9","btm","[""L""]","","","","","","3309","key","m","m","16.685891213389183","798","448.5","2","0","1","0","1","true","",""
"","psychophysics","31","163989","0.0-2.0-1.9","btm","[""L""]","","","","","","null","key","null","null","16.6864333333336","798","448.5","2","0","1","0","1","","",""
"","psychophysics","32","164999","0.0-2.0-2.9-0.9","btm","[""L""]","","","","","","null","key","null","null","16.685084745762435","798","448.5","2","0","1","0","1","","",""
"","psychophysics","33","168764","0.0-2.0-0.10","btm","[""L""]","","","","","","3060","key","z","z","16.686088888888868","798","448.5","1","1","1","1","1","true","",""
"","psychophysics","34","169771","0.0-2.0-1.10","btm","[""L""]","","","","","","null","key","null","null","16.686050847457857","798","448.5","1","1","1","1","1","","",""
"","psychophysics","35","170782","0.0-2.0-2.10-0.10","btm","[""L""]","","","","","","null","key","null","null","16.68636666666668","798","448.5","1","1","1","1","1","","",""
"","psychophysics","36","175237","0.0-2.0-0.11","btm","[""L""]","","","","","","3752","key","z","z","16.68571804511272","798","448.5","1","0","0","1","1","true","",""
"","psychophysics","37","176244","0.0-2.0-1.11","btm","[""L""]","","","","","","null","key","null","null","16.685220338982802","798","448.5","1","0","0","1","1","","",""
"","psychophysics","38","177255","0.0-2.0-2.11-0.11","btm","[""L""]","","","","","","null","key","null","null","16.686516666666527","798","448.5","1","0","0","1","1","","",""
"","psychophysics","39","179380","0.0-2.0-0.12","btm","[""L""]","","","","","","1422","key","m","m","16.686119047619055","798","448.5","2","1","0","1","1","true","",""
"","psychophysics","40","180388","0.0-2.0-1.12","btm","[""L""]","","","","","","null","key","null","null","16.68669491525398","798","448.5","2","1","0","1","1","","",""
"","psychophysics","41","181398","0.0-2.0-2.12-0.12","btm","[""L""]","","","","","","null","key","null","null","16.686016666666546","798","448.5","2","1","0","1","1","","",""
"","psychophysics","42","184030","0.0-2.0-0.13","btm","[""L""]","","","","","","1929","key","z","z","16.686006369426806","798","448.5","1","0","0","1","0","true","",""
"","psychophysics","43","185037","0.0-2.0-1.13","btm","[""L""]","","","","","","null","key","null","null","16.684220338983152","798","448.5","1","0","0","1","0","","",""
"","psychophysics","44","186049","0.0-2.0-2.13-0.13","btm","[""L""]","","","","","","null","key","null","null","16.687883333333108","798","448.5","1","0","0","1","0","","",""
"","psychophysics","45","188612","0.0-2.0-0.14","btm","[""L""]","","","","","","1860","key","z","z","16.685585526315805","798","448.5","1","0","0","1","1","true","",""
"","psychophysics","46","189620","0.0-2.0-1.14","btm","[""L""]","","","","","","null","key","null","null","16.686399999999654","798","448.5","1","0","0","1","1","","",""
"","psychophysics","47","190630","0.0-2.0-2.14-0.14","btm","[""L""]","","","","","","null","key","null","null","16.685745762711907","798","448.5","1","0","0","1","1","","",""
"","psychophysics","48","192812","0.0-2.0-0.15","btm","[""L""]","","","","","","1473","key","z","z","16.686615384615457","798","448.5","1","0","0","1","0","true","",""
"","psychophysics","49","193819","0.0-2.0-1.15","btm","[""L""]","","","","","","null","key","null","null","16.687237288135446","798","448.5","1","0","0","1","0","","",""
"","psychophysics","50","194828","0.0-2.0-2.15-0.15","btm","[""L""]","","","","","","null","key","null","null","16.686849999999687","798","448.5","1","0","0","1","0","","",""
"","psychophysics","51","197078","0.0-2.0-0.16","btm","[""L""]","","","","","","1546","key","m","m","16.68572388059714","798","448.5","2","0","1","0","0","true","",""
"","psychophysics","52","198085","0.0-2.0-1.16","btm","[""L""]","","","","","","null","key","null","null","16.686067796610217","798","448.5","2","0","1","0","0","","",""
"","psychophysics","53","199097","0.0-2.0-2.16-0.16","btm","[""L""]","","","","","","null","key","null","null","16.687300000000203","798","448.5","2","0","1","0","0","","",""
"","psychophysics","54","203812","0.0-2.0-0.17","btm","[""L""]","","","","","","4012","key","m","m","16.686085409252698","798","448.5","2","1","0","1","0","true","",""
"","psychophysics","55","204821","0.0-2.0-1.17","btm","[""L""]","","","","","","null","key","null","null","16.686216666666343","798","448.5","2","1","0","1","0","","",""
"","psychophysics","56","205830","0.0-2.0-2.17-0.17","btm","[""L""]","","","","","","null","key","null","null","16.686372881355673","798","448.5","2","1","0","1","0","","",""
"","psychophysics","57","209660","0.0-2.0-0.18","btm","[""L""]","","","","","","3127","key","m","m","16.68568558951964","798","448.5","1","0","0","0","1","false","",""
"","psychophysics","58","210667","0.0-2.0-1.18","btm","[""L""]","","","","","","null","key","null","null","16.686644067796404","798","448.5","1","0","0","0","1","","",""
"","psychophysics","59","211679","0.0-2.0-3.18-0.18","btm","[""L""]","","","","","","null","key","null","null","16.68613333333342","798","448.5","1","0","0","0","1","","",""
"","psychophysics","60","215756","0.0-2.0-0.19","btm","[""L""]","","","","","","3374","key","z","z","16.685958847736604","798","448.5","2","1","1","1","0","false","",""
"","psychophysics","61","216767","0.0-2.0-1.19","btm","[""L""]","","","","","","null","key","null","null","16.687149999999868","798","448.5","2","1","1","1","0","","",""
"","psychophysics","62","217777","0.0-2.0-3.19-0.19","btm","[""L""]","","","","","","null","key","null","null","16.686406779660885","798","448.5","2","1","1","1","0","","",""
"","psychophysics","63","219628","0.0-2.0-0.20","btm","[""L""]","","","","","","1147","key","z","z","16.686581818181864","798","448.5","1","1","1","1","1","true","",""
"","psychophysics","64","220638","0.0-2.0-1.20","btm","[""L""]","","","","","","null","key","null","null","16.68669999999984","798","448.5","1","1","1","1","1","","",""
"","psychophysics","65","221647","0.0-2.0-2.20-0.20","btm","[""L""]","","","","","","null","key","null","null","16.68540677966124","798","448.5","1","1","1","1","1","","",""
"","psychophysics","66","224804","0.0-2.0-0.21","btm","[""L""]","","","","","","2453","key","z","z","16.68605851063841","798","448.5","2","0","1","1","0","false","",""
"","psychophysics","67","225812","0.0-2.0-1.21","btm","[""L""]","","","","","","null","key","null","null","16.685383333333206","798","448.5","2","0","1","1","0","","",""
"","psychophysics","68","226821","0.0-2.0-3.21-0.21","btm","[""L""]","","","","","","null","key","null","null","16.68627118644052","798","448.5","2","0","1","1","0","","",""
"","psychophysics","69","229572","0.0-2.0-0.22","btm","[""L""]","","","","","","2046","key","z","z","16.68672560975605","798","448.5","2","0","1","0","0","false","",""
"","psychophysics","70","230583","0.0-2.0-1.22","btm","[""L""]","","","","","","null","key","null","null","16.68756666666692","798","448.5","2","0","1","0","0","","",""
"","psychophysics","71","231592","0.0-2.0-3.22-0.22","btm","[""L""]","","","","","","null","key","null","null","16.685033898305353","798","448.5","2","0","1","0","0","","",""
"","psychophysics","72","234492","0.0-2.0-0.23","btm","[""L""]","","","","","","2196","key","z","z","16.686156069364255","798","448.5","2","1","1","0","1","false","",""
"","psychophysics","73","235499","0.0-2.0-1.23","btm","[""L""]","","","","","","null","key","null","null","16.686305084745737","798","448.5","2","1","1","0","1","","",""
"","psychophysics","74","236509","0.0-2.0-3.23-0.23","btm","[""L""]","","","","","","null","key","null","null","16.686966666666557","798","448.5","2","1","1","0","1","","",""
"","psychophysics","75","238788","0.0-2.0-0.24","btm","[""L""]","","","","","","1575","key","m","m","16.6858444444445","798","448.5","2","1","1","1","1","true","",""
"","psychophysics","76","239796","0.0-2.0-1.24","btm","[""L""]","","","","","","null","key","null","null","16.686583333332965","798","448.5","2","1","1","1","1","","",""
"","psychophysics","77","240805","0.0-2.0-2.24-0.24","btm","[""L""]","","","","","","null","key","null","null","16.68708474576272","798","448.5","2","1","1","1","1","","",""
"","psychophysics","78","242468","0.0-2.0-0.25","btm","[""L""]","","","","","","955","key","m","m","16.68619191919211","798","448.5","1","0","1","1","0","false","",""
"","psychophysics","79","243475","0.0-2.0-1.25","btm","[""L""]","","","","","","null","key","null","null","16.685406779660745","798","448.5","1","0","1","1","0","","",""
"","psychophysics","80","244484","0.0-2.0-3.25-0.25","btm","[""L""]","","","","","","null","key","null","null","16.686099999999957","798","448.5","1","0","1","1","0","","",""
"","psychophysics","81","246275","0.0-2.0-0.26","btm","[""L""]","","","","","","1087","key","z","z","16.686537735849203","798","448.5","1","1","0","0","1","true","",""
"","psychophysics","82","247285","0.0-2.0-1.26","btm","[""L""]","","","","","","null","key","null","null","16.686333333333216","798","448.5","1","1","0","0","1","","",""
"","psychophysics","83","248294","0.0-2.0-2.26-0.26","btm","[""L""]","","","","","","null","key","null","null","16.68615254237301","798","448.5","1","1","0","0","1","","",""
"","psychophysics","84","251987","0.0-2.0-0.27","btm","[""L""]","","","","","","2989","key","z","z","16.685813636363573","798","448.5","1","1","0","1","1","true","",""
"","psychophysics","85","252995","0.0-2.0-1.27","btm","[""L""]","","","","","","null","key","null","null","16.68531666666677","798","448.5","1","1","0","1","1","","",""
"","psychophysics","86","254004","0.0-2.0-2.27-0.27","btm","[""L""]","","","","","","null","key","null","null","16.686050847457363","798","448.5","1","1","0","1","1","","",""
"","psychophysics","87","257451","0.0-2.0-0.28","btm","[""L""]","","","","","","2741","key","z","z","16.68610679611645","798","448.5","2","0","0","0","1","false","",""
"","psychophysics","88","258460","0.0-2.0-1.28","btm","[""L""]","","","","","","null","key","null","null","16.686542372881252","798","448.5","2","0","0","0","1","","",""
"","psychophysics","89","259470","0.0-2.0-3.28-0.28","btm","[""L""]","","","","","","null","key","null","null","16.6866333333334","798","448.5","2","0","0","0","1","","",""
"","psychophysics","90","262203","0.0-2.0-0.29","btm","[""L""]","","","","","","2029","key","z","z","16.68619631901844","798","448.5","1","1","0","1","1","true","",""
"","psychophysics","91","263211","0.0-2.0-1.29","btm","[""L""]","","","","","","null","key","null","null","16.68538983050888","798","448.5","1","1","0","1","1","","",""
"","psychophysics","92","264221","0.0-2.0-2.29-0.29","btm","[""L""]","","","","","","null","key","null","null","16.686083333333954","798","448.5","1","1","0","1","1","","",""
"","psychophysics","93","265883","0.0-2.0-0.30","btm","[""L""]","","","","","","958","key","m","m","16.686591836734916","798","448.5","1","0","1","0","1","false","",""
"","psychophysics","94","266892","0.0-2.0-1.30","btm","[""L""]","","","","","","null","key","null","null","16.68563333333392","798","448.5","1","0","1","0","1","","",""
"","psychophysics","95","267901","0.0-2.0-3.30-0.30","btm","[""L""]","","","","","","null","key","null","null","16.68545762711832","798","448.5","1","0","1","0","1","","",""
"","psychophysics","96","270496","0.0-2.0-0.31","btm","[""L""]","","","","","","1890","key","z","z","16.685896774193633","798","448.5","1","1","1","1","1","true","",""
"","psychophysics","97","271503","0.0-2.0-1.31","btm","[""L""]","","","","","","null","key","null","null","16.685881355932274","798","448.5","1","1","1","1","1","","",""
"","psychophysics","98","272514","0.0-2.0-2.31-0.31","btm","[""L""]","","","","","","null","key","null","null","16.686633333332914","798","448.5","1","1","1","1","1","","",""
"","psychophysics","99","274427","0.0-2.0-0.32","btm","[""L""]","","","","","","1209","key","m","m","16.686035398230064","798","448.5","2","1","1","1","1","true","",""
"","psychophysics","100","275435","0.0-2.0-1.32","btm","[""L""]","","","","","","null","key","null","null","16.687100000000402","798","448.5","2","1","1","1","1","","",""
"","psychophysics","101","276444","0.0-2.0-2.32-0.32","btm","[""L""]","","","","","","null","key","null","null","16.686610169491683","798","448.5","2","1","1","1","1","","",""
"","psychophysics","102","278422","0.0-2.0-0.33","btm","[""L""]","","","","","","1275","key","m","m","16.68624576271198","798","448.5","2","1","0","1","1","true","",""
"","psychophysics","103","279429","0.0-2.0-1.33","btm","[""L""]","","","","","","null","key","null","null","16.68566101694961","798","448.5","2","1","0","1","1","","",""
"","psychophysics","104","280440","0.0-2.0-2.33-0.33","btm","[""L""]","","","","","","null","key","null","null","16.685799999999777","798","448.5","2","1","0","1","1","","",""
"","psychophysics","105","282947","0.0-2.0-0.34","btm","[""L""]","","","","","","1804","key","z","z","16.685704697986466","798","448.5","1","1","1","1","1","true","",""
"","psychophysics","106","283955","0.0-2.0-1.34","btm","[""L""]","","","","","","null","key","null","null","16.68686440677907","798","448.5","1","1","1","1","1","","",""
"","psychophysics","107","284964","0.0-2.0-2.34-0.34","btm","[""L""]","","","","","","null","key","null","null","16.686016666667033","798","448.5","1","1","1","1","1","","",""
"","psychophysics","108","288366","0.0-2.0-0.35","btm","[""L""]","","","","","","2698","key","z","z","16.6860591133003","798","448.5","1","1","0","1","1","true","",""
"","psychophysics","109","289374","0.0-2.0-1.35","btm","[""L""]","","","","","","null","key","null","null","16.685627118643904","798","448.5","1","1","0","1","1","","",""
"","psychophysics","110","290385","0.0-2.0-2.35-0.35","btm","[""L""]","","","","","","null","key","null","null","16.68669999999984","798","448.5","1","1","0","1","1","","",""
"","psychophysics","111","292875","0.0-2.0-0.36","btm","[""L""]","","","","","","1787","key","m","m","16.68590540540518","798","448.5","1","0","0","0","0","false","",""
"","psychophysics","112","293883","0.0-2.0-1.36","btm","[""L""]","","","","","","null","key","null","null","16.686067796610217","798","448.5","1","0","0","0","0","","",""
"","psychophysics","113","294892","0.0-2.0-3.36-0.36","btm","[""L""]","","","","","","null","key","null","null","16.686450000000573","798","448.5","1","0","0","0","0","","",""
"","psychophysics","114","297027","0.0-2.0-0.37","btm","[""L""]","","","","","","1432","key","z","z","16.68643307086588","798","448.5","1","0","1","0","1","true","",""
"","psychophysics","115","298033","0.0-2.0-1.37","btm","[""L""]","","","","","","null","key","null","null","16.68610169491494","798","448.5","1","0","1","0","1","","",""
"","psychophysics","116","299044","0.0-2.0-2.37-0.37","btm","[""L""]","","","","","","null","key","null","null","16.686716666666324","798","448.5","1","0","1","0","1","","",""
"","psychophysics","117","302875","0.0-2.0-0.38","btm","[""L""]","","","","","","3128","key","z","z","16.685793859649014","798","448.5","1","0","0","0","1","true","",""
"","psychophysics","118","303883","0.0-2.0-1.38","btm","[""L""]","","","","","","null","key","null","null","16.687083333333916","798","448.5","1","0","0","0","1","","",""
"","psychophysics","119","304891","0.0-2.0-2.38-0.38","btm","[""L""]","","","","","","null","key","null","null","16.68701694915229","798","448.5","1","0","0","0","1","","",""
"","psychophysics","120","307307","0.0-2.0-0.39","btm","[""L""]","","","","","","1712","key","m","m","16.68643750000006","798","448.5","2","1","1","1","0","true","",""
"","psychophysics","121","308314","0.0-2.0-1.39","btm","[""L""]","","","","","","null","key","null","null","16.68625423728816","798","448.5","2","1","1","1","0","","",""
"","psychophysics","122","309326","0.0-2.0-2.39-0.39","btm","[""L""]","","","","","","null","key","null","null","16.68640000000014","798","448.5","2","1","1","1","0","","",""
"","psychophysics","123","311363","0.0-2.0-0.40","btm","[""L""]","","","","","","1334","key","m","m","16.685785123966788","798","448.5","2","1","0","1","1","true","",""
"","psychophysics","124","312370","0.0-2.0-1.40","btm","[""L""]","","","","","","null","key","null","null","16.68581355932283","798","448.5","2","1","0","1","1","","",""
"","psychophysics","125","313380","0.0-2.0-2.40-0.40","btm","[""L""]","","","","","","null","key","null","null","16.686266666667265","798","448.5","2","1","0","1","1","","",""
"","psychophysics","126","315099","0.0-2.0-0.41","btm","[""L""]","","","","","","1015","key","m","m","16.686088235294402","798","448.5","2","1","0","1","1","true","",""
"","psychophysics","127","316105","0.0-2.0-1.41","btm","[""L""]","","","","","","null","key","null","null","16.686016949152148","798","448.5","2","1","0","1","1","","",""
"","psychophysics","128","317116","0.0-2.0-2.41-0.41","btm","[""L""]","","","","","","null","key","null","null","16.686883333333146","798","448.5","2","1","0","1","1","","",""
"","psychophysics","129","319195","0.0-2.0-0.42","btm","[""L""]","","","","","","1376","key","z","z","16.685520325203395","798","448.5","1","0","1","1","1","true","",""
"","psychophysics","130","320203","0.0-2.0-1.42","btm","[""L""]","","","","","","null","key","null","null","16.686450000000573","798","448.5","1","0","1","1","1","","",""
"","psychophysics","131","321212","0.0-2.0-2.42-0.42","btm","[""L""]","","","","","","null","key","null","null","16.6849322033902","798","448.5","1","0","1","1","1","","",""
"","psychophysics","132","322795","0.0-2.0-0.43","btm","[""L""]","","","","","","879","key","z","z","16.686031914893242","798","448.5","1","0","1","1","1","true","",""
"","psychophysics","133","323802","0.0-2.0-1.43","btm","[""L""]","","","","","","null","key","null","null","16.68610169491494","798","448.5","1","0","1","1","1","","",""
"","psychophysics","134","324811","0.0-2.0-2.43-0.43","btm","[""L""]","","","","","","null","key","null","null","16.685050000000047","798","448.5","1","0","1","1","1","","",""
"","psychophysics","135","326586","0.0-2.0-0.44","btm","[""L""]","","","","","","1073","key","m","m","16.686066666666772","798","448.5","2","0","1","0","1","true","",""
"","psychophysics","136","327594","0.0-2.0-1.44","btm","[""L""]","","","","","","null","key","null","null","16.68666666666589","798","448.5","2","0","1","0","1","","",""
"","psychophysics","137","328605","0.0-2.0-2.44-0.44","btm","[""L""]","","","","","","null","key","null","null","16.68650847457653","798","448.5","2","0","1","0","1","","",""
"","psychophysics","138","331427","0.0-2.0-0.45","btm","[""L""]","","","","","","2119","key","z","z","16.686190476190642","798","448.5","2","0","1","1","0","false","",""
"","psychophysics","139","332435","0.0-2.0-1.45","btm","[""L""]","","","","","","null","key","null","null","16.686333333333216","798","448.5","2","0","1","1","0","","",""
"","psychophysics","140","333444","0.0-2.0-3.45-0.45","btm","[""L""]","","","","","","null","key","null","null","16.68625423728816","798","448.5","2","0","1","1","0","","",""
"","psychophysics","141","335643","0.0-2.0-0.46","btm","[""L""]","","","","","","1491","key","m","m","16.686351145038252","798","448.5","2","0","1","0","1","true","",""
"","psychophysics","142","336650","0.0-2.0-1.46","btm","[""L""]","","","","","","null","key","null","null","16.68727118644066","798","448.5","2","0","1","0","1","","",""
"","psychophysics","143","337659","0.0-2.0-2.46-0.46","btm","[""L""]","","","","","","null","key","null","null","16.686416666666627","798","448.5","2","0","1","0","1","","",""
"","psychophysics","144","339195","0.0-2.0-0.47","btm","[""L""]","","","","","","832","key","m","m","16.68586813186802","798","448.5","2","0","1","0","1","true","",""
"","psychophysics","145","340201","0.0-2.0-1.47","btm","[""L""]","","","","","","null","key","null","null","16.686644067796404","798","448.5","2","0","1","0","1","","",""
"","psychophysics","146","341210","0.0-2.0-2.47-0.47","btm","[""L""]","","","","","","null","key","null","null","16.686166666667365","798","448.5","2","0","1","0","1","","",""
"","psychophysics","147","342828","0.0-2.0-0.48","btm","[""L""]","","","","","","915","key","m","m","16.6857604166665","798","448.5","1","0","1","1","1","false","",""
"","psychophysics","148","343835","0.0-2.0-1.48","btm","[""L""]","","","","","","null","key","null","null","16.685016949152992","798","448.5","1","0","1","1","1","","",""
"","psychophysics","149","344847","0.0-2.0-3.48-0.48","btm","[""L""]","","","","","","null","key","null","null","16.68605000000001","798","448.5","1","0","1","1","1","","",""
"","psychophysics","150","348226","0.0-2.0-0.49","btm","[""L""]","","","","","","2677","key","z","z","16.685716417910584","798","448.5","1","1","0","1","1","true","",""
"","psychophysics","151","349235","0.0-2.0-1.49","btm","[""L""]","","","","","","null","key","null","null","16.687149999999868","798","448.5","1","1","0","1","1","","",""
"","psychophysics","152","350243","0.0-2.0-2.49-0.49","btm","[""L""]","","","","","","null","key","null","null","16.686135593220648","798","448.5","1","1","0","1","1","","",""
"","psychophysics","153","352474","0.0-2.0-0.50","btm","[""L""]","","","","","","1528","key","m","m","16.685030075187946","798","448.5","2","1","1","1","0","true","",""
"","psychophysics","154","353481","0.0-2.0-1.50","btm","[""L""]","","","","","","null","key","null","null","16.685915254236996","798","448.5","2","1","1","1","0","","",""
"","psychophysics","155","354491","0.0-2.0-2.50-0.50","btm","[""L""]","","","","","","null","key","null","null","16.686416666666627","798","448.5","2","1","1","1","0","","",""
"","psychophysics","156","356579","0.0-2.0-0.51","btm","[""L""]","","","","","","1384","key","z","z","16.6854516129031","798","448.5","1","0","0","1","0","true","",""
"","psychophysics","157","357586","0.0-2.0-1.51","btm","[""L""]","","","","","","null","key","null","null","16.68452542372861","798","448.5","1","0","0","1","0","","",""
"","psychophysics","158","358596","0.0-2.0-2.51-0.51","btm","[""L""]","","","","","","null","key","null","null","16.68678333333325","798","448.5","1","0","0","1","0","","",""
"","psychophysics","159","360611","0.0-2.0-0.52","btm","[""L""]","","","","","","1311","key","z","z","16.685487394958262","798","448.5","1","0","0","1","1","true","",""
"","psychophysics","160","361620","0.0-2.0-1.52","btm","[""L""]","","","","","","null","key","null","null","16.687466666666054","798","448.5","1","0","0","1","1","","",""
"","psychophysics","161","362628","0.0-2.0-2.52-0.52","btm","[""L""]","","","","","","null","key","null","null","16.686627118644044","798","448.5","1","0","0","1","1","","",""
"","psychophysics","162","364779","0.0-2.0-0.53","btm","[""L""]","","","","","","1448","key","m","m","16.686210937500164","798","448.5","1","0","0","0","1","false","",""
"","psychophysics","163","365788","0.0-2.0-1.53","btm","[""L""]","","","","","","null","key","null","null","16.687166666667327","798","448.5","1","0","0","0","1","","",""
"","psychophysics","164","366796","0.0-2.0-3.53-0.53","btm","[""L""]","","","","","","null","key","null","null","16.687305084745383","798","448.5","1","0","0","0","1","","",""
"","psychophysics","165","368595","0.0-2.0-0.54","btm","[""L""]","","","","","","1096","key","z","z","16.68612149532691","798","448.5","1","1","0","1","0","true","",""
"","psychophysics","166","369603","0.0-2.0-1.54","btm","[""L""]","","","","","","null","key","null","null","16.68488135593213","798","448.5","1","1","0","1","0","","",""
"","psychophysics","167","370614","0.0-2.0-2.54-0.54","btm","[""L""]","","","","","","null","key","null","null","16.686633333333884","798","448.5","1","1","0","1","0","","",""
"","psychophysics","168","372683","0.0-2.0-0.55","btm","[""L""]","","","","","","1365","key","z","z","16.686162601625906","798","448.5","1","1","1","1","1","true","",""
"","psychophysics","169","373690","0.0-2.0-1.55","btm","[""L""]","","","","","","null","key","null","null","16.685542372881113","798","448.5","1","1","1","1","1","","",""
"","psychophysics","170","374699","0.0-2.0-2.55-0.55","btm","[""L""]","","","","","","null","key","null","null","16.68686666666666","798","448.5","1","1","1","1","1","","",""
"","psychophysics","171","376787","0.0-2.0-0.56","btm","[""L""]","","","","","","1384","key","m","m","16.685717741935328","798","448.5","2","1","0","1","1","true","",""
"","psychophysics","172","377794","0.0-2.0-1.56","btm","[""L""]","","","","","","null","key","null","null","16.685644067796265","798","448.5","2","1","0","1","1","","",""
"","psychophysics","173","378803","0.0-2.0-2.56-0.56","btm","[""L""]","","","","","","null","key","null","null","16.686733333333784","798","448.5","2","1","0","1","1","","",""
"","psychophysics","174","380339","0.0-2.0-0.57","btm","[""L""]","","","","","","833","key","z","z","16.68632967032973","798","448.5","2","1","0","0","0","false","",""
"","psychophysics","175","381346","0.0-2.0-1.57","btm","[""L""]","","","","","","null","key","null","null","16.68576271186476","798","448.5","2","1","0","0","0","","",""
"","psychophysics","176","382357","0.0-2.0-3.57-0.57","btm","[""L""]","","","","","","null","key","null","null","16.68605000000001","798","448.5","2","1","0","0","0","","",""
"","psychophysics","177","383755","0.0-2.0-0.58","btm","[""L""]","","","","","","695","key","m","m","16.68563414634086","798","448.5","1","0","1","1","1","false","",""
"","psychophysics","178","384763","0.0-2.0-1.58","btm","[""L""]","","","","","","null","key","null","null","16.68676666666676","798","448.5","1","0","1","1","1","","",""
"","psychophysics","179","385772","0.0-2.0-3.58-0.58","btm","[""L""]","","","","","","null","key","null","null","16.68610169491494","798","448.5","1","0","1","1","1","","",""
"","psychophysics","180","387587","0.0-2.0-0.59","btm","[""L""]","","","","","","1108","key","z","z","16.686296296296252","798","448.5","1","0","1","1","1","true","",""
"","psychophysics","181","388597","0.0-2.0-1.59","btm","[""L""]","","","","","","null","key","null","null","16.68675000000027","798","448.5","1","0","1","1","1","","",""
"","psychophysics","182","389607","0.0-2.0-2.59-0.59","btm","[""L""]","","","","","","null","key","null","null","16.685271186440378","798","448.5","1","0","1","1","1","","",""
"","psychophysics","183","392595","0.0-2.0-0.60","btm","[""L""]","","","","","","2284","key","m","m","16.686134831460908","798","448.5","1","0","1","0","1","false","",""
"","psychophysics","184","393604","0.0-2.0-1.60","btm","[""L""]","","","","","","null","key","null","null","16.68685000000017","798","448.5","1","0","1","0","1","","",""
"","psychophysics","185","394612","0.0-2.0-3.60-0.60","btm","[""L""]","","","","","","null","key","null","null","16.685932203389356","798","448.5","1","0","1","0","1","","",""
"","psychophysics","186","397771","0.0-2.0-0.61","btm","[""L""]","","","","","","2455","key","z","z","16.68627659574478","798","448.5","2","0","1","1","0","false","",""
"","psychophysics","187","398780","0.0-2.0-1.61","btm","[""L""]","","","","","","null","key","null","null","16.687100000000402","798","448.5","2","0","1","1","0","","",""
"","psychophysics","188","399789","0.0-2.0-3.61-0.61","btm","[""L""]","","","","","","null","key","null","null","16.687610169491826","798","448.5","2","0","1","1","0","","",""
"","psychophysics","189","401291","0.0-2.0-0.62","btm","[""L""]","","","","","","796","key","m","m","16.686685393258323","798","448.5","2","1","1","1","0","true","",""
"","psychophysics","190","402299","0.0-2.0-1.62","btm","[""L""]","","","","","","null","key","null","null","16.686599999999938","798","448.5","2","1","1","1","0","","",""
"","psychophysics","191","403309","0.0-2.0-2.62-0.62","btm","[""L""]","","","","","","null","key","null","null","16.68688135593143","798","448.5","2","1","1","1","0","","",""
"","psychophysics","192","405387","0.0-2.0-0.63","btm","[""L""]","","","","","","1372","key","z","z","16.686193548387006","798","448.5","1","1","0","1","0","true","",""
"","psychophysics","193","406394","0.0-2.0-1.63","btm","[""L""]","","","","","","null","key","null","null","16.686084745762578","798","448.5","1","1","0","1","0","","",""
"","psychophysics","194","407403","0.0-2.0-2.63-0.63","btm","[""L""]","","","","","","null","key","null","null","16.685333333334224","798","448.5","1","1","0","1","0","","",""
"","psychophysics","195","409099","0.0-2.0-0.64","btm","[""L""]","","","","","","992","key","m","m","16.68566999999981","798","448.5","2","1","1","1","1","true","",""
"","psychophysics","196","410106","0.0-2.0-1.64","btm","[""L""]","","","","","","null","key","null","null","16.68685000000017","798","448.5","2","1","1","1","1","","",""
"","psychophysics","197","411116","0.0-2.0-2.64-0.64","btm","[""L""]","","","","","","null","key","null","null","16.686135593220648","798","448.5","2","1","1","1","1","","",""
"","psychophysics","198","413131","0.0-2.0-0.65","btm","[""L""]","","","","","","1311","key","z","z","16.68654999999999","798","448.5","1","1","0","1","1","true","",""
"","psychophysics","199","414138","0.0-2.0-1.65","btm","[""L""]","","","","","","null","key","null","null","16.68622033898344","798","448.5","1","1","0","1","1","","",""
"","psychophysics","200","415146","0.0-2.0-2.65-0.65","btm","[""L""]","","","","","","null","key","null","null","16.68685000000017","798","448.5","1","1","0","1","1","","",""
"","psychophysics","201","417482","0.0-2.0-0.66","btm","[""L""]","","","","","","1632","key","z","z","16.685856115107722","798","448.5","1","0","0","1","0","true","",""
"","psychophysics","202","418490","0.0-2.0-1.66","btm","[""L""]","","","","","","null","key","null","null","16.68616949152537","798","448.5","1","0","0","1","0","","",""
"","psychophysics","203","419500","0.0-2.0-2.66-0.66","btm","[""L""]","","","","","","null","key","null","null","16.686333333334186","798","448.5","1","0","0","1","0","","",""
"","psychophysics","204","421474","0.0-2.0-0.67","btm","[""L""]","","","","","","1271","key","m","m","16.685427350426913","798","448.5","2","1","1","1","1","true","",""
"","psychophysics","205","422482","0.0-2.0-1.67","btm","[""L""]","","","","","","null","key","null","null","16.685864406779913","798","448.5","2","1","1","1","1","","",""
"","psychophysics","206","423492","0.0-2.0-2.67-0.67","btm","[""L""]","","","","","","null","key","null","null","16.684333333333296","798","448.5","2","1","1","1","1","","",""
"","psychophysics","207","426330","0.0-2.0-0.68","btm","[""L""]","","","","","","2135","key","m","m","16.68594674556206","798","448.5","2","0","0","1","0","true","",""
"","psychophysics","208","427338","0.0-2.0-1.68","btm","[""L""]","","","","","","null","key","null","null","16.687135593220788","798","448.5","2","0","0","1","0","","",""
"","psychophysics","209","428347","0.0-2.0-2.68-0.68","btm","[""L""]","","","","","","null","key","null","null","16.684716666666404","798","448.5","2","0","0","1","0","","",""
"","psychophysics","210","429922","0.0-2.0-0.69","btm","[""L""]","","","","","","871","key","m","m","16.686311827956885","798","448.5","1","1","1","1","0","false","",""
"","psychophysics","211","430931","0.0-2.0-1.69","btm","[""L""]","","","","","","null","key","null","null","16.685683333333387","798","448.5","1","1","1","1","0","","",""
"","psychophysics","212","431939","0.0-2.0-3.69-0.69","btm","[""L""]","","","","","","null","key","null","null","16.685864406778926","798","448.5","1","1","1","1","0","","",""
"","psychophysics","213","433738","0.0-2.0-0.70","btm","[""L""]","","","","","","1095","key","z","z","16.68617757009375","798","448.5","1","1","1","1","1","true","",""
"","psychophysics","214","434746","0.0-2.0-1.70","btm","[""L""]","","","","","","null","key","null","null","16.687118644068427","798","448.5","1","1","1","1","1","","",""
"","psychophysics","215","435755","0.0-2.0-2.70-0.70","btm","[""L""]","","","","","","null","key","null","null","16.68550000000008","798","448.5","1","1","1","1","1","","",""
"","psychophysics","216","437730","0.0-2.0-0.71","btm","[""L""]","","","","","","1270","key","z","z","16.686384615384373","798","448.5","2","0","0","1","0","false","",""
"","psychophysics","217","438738","0.0-2.0-1.71","btm","[""L""]","","","","","","null","key","null","null","16.68685000000017","798","448.5","2","0","0","1","0","","",""
"","psychophysics","218","439747","0.0-2.0-3.71-0.71","btm","[""L""]","","","","","","null","key","null","null","16.68571186440669","798","448.5","2","0","0","1","0","","",""
"","psychophysics","219","441514","0.0-2.0-0.72","btm","[""L""]","","","","","","1064","key","z","z","16.686657142857023","798","448.5","1","0","0","1","1","true","",""
"","psychophysics","220","442522","0.0-2.0-1.72","btm","[""L""]","","","","","","null","key","null","null","16.686305084746227","798","448.5","1","0","0","1","1","","",""
"","psychophysics","221","443532","0.0-2.0-2.72-0.72","btm","[""L""]","","","","","","null","key","null","null","16.68593333333265","798","448.5","1","0","0","1","1","","",""
"","psychophysics","222","445282","0.0-2.0-0.73","btm","[""L""]","","","","","","1046","key","m","m","16.685913461538103","798","448.5","2","1","1","1","0","true","",""
"","psychophysics","223","446290","0.0-2.0-1.73","btm","[""L""]","","","","","","null","key","null","null","16.686084745762578","798","448.5","2","1","1","1","0","","",""
"","psychophysics","224","447302","0.0-2.0-2.73-0.73","btm","[""L""]","","","","","","null","key","null","null","16.686350000000676","798","448.5","2","1","1","1","0","","",""
"","psychophysics","225","449074","0.0-2.0-0.74","btm","[""L""]","","","","","","1069","key","m","m","16.686066666666772","798","448.5","2","0","1","1","1","true","",""
"","psychophysics","226","450084","0.0-2.0-1.74","btm","[""L""]","","","","","","null","key","null","null","16.687249999999768","798","448.5","2","0","1","1","1","","",""
"","psychophysics","227","451093","0.0-2.0-2.74-0.74","btm","[""L""]","","","","","","null","key","null","null","16.686745762712544","798","448.5","2","0","1","1","1","","",""
"","psychophysics","228","454282","0.0-2.0-0.75","btm","[""L""]","","","","","","2486","key","z","z","16.68612631578948","798","448.5","2","0","0","0","0","false","",""
"","psychophysics","229","455290","0.0-2.0-1.75","btm","[""L""]","","","","","","null","key","null","null","16.686466666666092","798","448.5","2","0","0","0","0","","",""
"","psychophysics","230","456299","0.0-2.0-3.75-0.75","btm","[""L""]","","","","","","null","key","null","null","16.68567796610197","798","448.5","2","0","0","0","0","","",""
"","psychophysics","231","457877","0.0-2.0-0.76","btm","[""L""]","","","","","","873","key","m","m","16.68665957446842","798","448.5","2","1","0","1","1","true","",""
"","psychophysics","232","458884","0.0-2.0-1.76","btm","[""L""]","","","","","","null","key","null","null","16.685203389829947","798","448.5","2","1","0","1","1","","",""
"","psychophysics","233","459895","0.0-2.0-2.76-0.76","btm","[""L""]","","","","","","null","key","null","null","16.686833333333684","798","448.5","2","1","0","1","1","","",""
"","psychophysics","234","461618","0.0-2.0-0.77","btm","[""L""]","","","","","","1017","key","m","m","16.68598039215659","798","448.5","1","1","0","0","1","false","",""
"","psychophysics","235","462626","0.0-2.0-1.77","btm","[""L""]","","","","","","null","key","null","null","16.685932203390344","798","448.5","1","1","0","0","1","","",""
"","psychophysics","236","463636","0.0-2.0-3.77-0.77","btm","[""L""]","","","","","","null","key","null","null","16.687150000000837","798","448.5","1","1","0","0","1","","",""
"","psychophysics","237","465746","0.0-2.0-0.78","btm","[""L""]","","","","","","1406","key","m","m","16.68602400000021","798","448.5","2","0","0","1","0","true","",""
"","psychophysics","238","466755","0.0-2.0-1.78","btm","[""L""]","","","","","","null","key","null","null","16.688433333333037","798","448.5","2","0","0","1","0","","",""
"","psychophysics","239","467764","0.0-2.0-2.78-0.78","btm","[""L""]","","","","","","null","key","null","null","16.686389830508034","798","448.5","2","0","0","1","0","","",""
"","psychophysics","240","469834","0.0-2.0-0.79","btm","[""L""]","","","","","","1367","key","m","m","16.685390243902557","798","448.5","1","0","1","1","0","false","",""
"","psychophysics","241","470843","0.0-2.0-1.79","btm","[""L""]","","","","","","null","key","null","null","16.68658333333345","798","448.5","1","0","1","1","0","","",""
"","psychophysics","242","471852","0.0-2.0-3.79-0.79","btm","[""L""]","","","","","","null","key","null","null","16.68569491525433","798","448.5","1","0","1","1","0","","",""
"","psychophysics","243","473266","0.0-2.0-0.80","btm","[""L""]","","","","","","710","key","m","m","16.68702380952406","798","448.5","2","0","1","1","1","true","",""
"","psychophysics","244","474273","0.0-2.0-1.80","btm","[""L""]","","","","","","null","key","null","null","16.68642372881374","798","448.5","2","0","1","1","1","","",""
"","psychophysics","245","475283","0.0-2.0-2.80-0.80","btm","[""L""]","","","","","","null","key","null","null","16.686500000000038","798","448.5","2","0","1","1","1","","",""
"","psychophysics","246","476766","0.0-2.0-0.81","btm","[""L""]","","","","","","780","key","m","m","16.686056818182063","798","448.5","1","1","1","0","0","false","",""
"","psychophysics","247","477774","0.0-2.0-1.81","btm","[""L""]","","","","","","null","key","null","null","16.686084745762578","798","448.5","1","1","1","0","0","","",""
"","psychophysics","248","478784","0.0-2.0-3.81-0.81","btm","[""L""]","","","","","","null","key","null","null","16.686650000000373","798","448.5","1","1","1","0","0","","",""
"","psychophysics","249","480562","0.0-2.0-0.82","btm","[""L""]","","","","","","1074","key","m","m","16.685647619047224","798","448.5","2","0","1","0","1","true","",""
"","psychophysics","250","481571","0.0-2.0-1.82","btm","[""L""]","","","","","","null","key","null","null","16.68658333333345","798","448.5","2","0","1","0","1","","",""
"","psychophysics","251","482579","0.0-2.0-2.82-0.82","btm","[""L""]","","","","","","null","key","null","null","16.68576271186476","798","448.5","2","0","1","0","1","","",""
"","psychophysics","252","484466","0.0-2.0-0.83","btm","[""L""]","","","","","","1184","key","m","m","16.68654464285698","798","448.5","1","1","0","0","1","false","",""
"","psychophysics","253","485475","0.0-2.0-1.83","btm","[""L""]","","","","","","null","key","null","null","16.687016666666022","798","448.5","1","1","0","0","1","","",""
"","psychophysics","254","486486","0.0-2.0-3.83-0.83","btm","[""L""]","","","","","","null","key","null","null","16.69042372881431","798","448.5","1","1","0","0","1","","",""
"","psychophysics","255","487812","0.0-2.0-0.84","btm","[""L""]","","","","","","623","key","m","m","16.686531645569307","798","448.5","1","0","1","1","1","false","",""
"","psychophysics","256","488819","0.0-2.0-1.84","btm","[""L""]","","","","","","null","key","null","null","16.685915254236996","798","448.5","1","0","1","1","1","","",""
"","psychophysics","257","489830","0.0-2.0-3.84-0.84","btm","[""L""]","","","","","","null","key","null","null","16.687000000000506","798","448.5","1","0","1","1","1","","",""
"","psychophysics","258","491218","0.0-2.0-0.85","btm","[""L""]","","","","","","684","key","z","z","16.685999999999737","798","448.5","2","1","1","1","0","false","",""
"","psychophysics","259","492225","0.0-2.0-1.85","btm","[""L""]","","","","","","null","key","null","null","16.68545762711832","798","448.5","2","1","1","1","0","","",""
"","psychophysics","260","493236","0.0-2.0-3.85-0.85","btm","[""L""]","","","","","","null","key","null","null","16.68666666666686","798","448.5","2","1","1","1","0","","",""
"","psychophysics","261","494770","0.0-2.0-0.86","btm","[""L""]","","","","","","830","key","m","m","16.685736263735645","798","448.5","2","1","1","1","1","true","",""
"","psychophysics","262","495777","0.0-2.0-1.86","btm","[""L""]","","","","","","null","key","null","null","16.685932203390344","798","448.5","2","1","1","1","1","","",""
"","psychophysics","263","496788","0.0-2.0-2.86-0.86","btm","[""L""]","","","","","","null","key","null","null","16.687100000000402","798","448.5","2","1","1","1","1","","",""
"","psychophysics","264","498274","0.0-2.0-0.87","btm","[""L""]","","","","","","782","key","m","m","16.68563636363582","798","448.5","2","0","1","0","1","true","",""
"","psychophysics","265","499282","0.0-2.0-1.87","btm","[""L""]","","","","","","null","key","null","null","16.68633898305095","798","448.5","2","0","1","0","1","","",""
"","psychophysics","266","500292","0.0-2.0-2.87-0.87","btm","[""L""]","","","","","","null","key","null","null","16.686233333333316","798","448.5","2","0","1","0","1","","",""
"","psychophysics","267","501818","0.0-2.0-0.88","btm","[""L""]","","","","","","822","key","z","z","16.68612222222275","798","448.5","1","1","0","1","1","true","",""
"","psychophysics","268","502828","0.0-2.0-1.88","btm","[""L""]","","","","","","null","key","null","null","16.68678333333422","798","448.5","1","1","0","1","1","","",""
"","psychophysics","269","503839","0.0-2.0-2.88-0.88","btm","[""L""]","","","","","","null","key","null","null","16.68569491525433","798","448.5","1","1","0","1","1","","",""
"","psychophysics","270","505582","0.0-2.0-0.89","btm","[""L""]","","","","","","1040","key","m","m","16.685317307692177","798","448.5","1","1","1","1","0","false","",""
"","psychophysics","271","506589","0.0-2.0-1.89","btm","[""L""]","","","","","","null","key","null","null","16.686084745763566","798","448.5","1","1","1","1","0","","",""
"","psychophysics","272","507600","0.0-2.0-3.89-0.89","btm","[""L""]","","","","","","null","key","null","null","16.686883333333146","798","448.5","1","1","1","1","0","","",""
"","psychophysics","273","509487","0.0-2.0-0.90","btm","[""L""]","","","","","","1183","key","z","z","16.686223214285878","798","448.5","1","0","0","1","1","true","",""
"","psychophysics","274","510494","0.0-2.0-1.90","btm","[""L""]","","","","","","null","key","null","null","16.684779661016982","798","448.5","1","0","0","1","1","","",""
"","psychophysics","275","511505","0.0-2.0-2.90-0.90","btm","[""L""]","","","","","","null","key","null","null","16.687149999999868","798","448.5","1","0","0","1","1","","",""
"","psychophysics","276","513346","0.0-2.0-0.91","btm","[""L""]","","","","","","1137","key","m","m","16.685660550458923","798","448.5","2","1","0","1","0","true","",""
"","psychophysics","277","514354","0.0-2.0-1.91","btm","[""L""]","","","","","","null","key","null","null","16.686745762711556","798","448.5","2","1","0","1","0","","",""
"","psychophysics","278","515363","0.0-2.0-2.91-0.91","btm","[""L""]","","","","","","null","key","null","null","16.68620000000034","798","448.5","2","1","0","1","0","","",""
"","psychophysics","279","516779","0.0-2.0-0.92","btm","[""L""]","","","","","","713","key","m","m","16.6859166666663","798","448.5","2","1","1","1","0","true","",""
"","psychophysics","280","517786","0.0-2.0-1.92","btm","[""L""]","","","","","","null","key","null","null","16.68549152542403","798","448.5","2","1","1","1","0","","",""
"","psychophysics","281","518797","0.0-2.0-2.92-0.92","btm","[""L""]","","","","","","null","key","null","null","16.687000000000506","798","448.5","2","1","1","1","0","","",""
"","psychophysics","282","520218","0.0-2.0-0.93","btm","[""L""]","","","","","","718","key","m","m","16.68635714285691","798","448.5","2","1","1","1","1","true","",""
"","psychophysics","283","521226","0.0-2.0-1.93","btm","[""L""]","","","","","","null","key","null","null","16.686491525423182","798","448.5","2","1","1","1","1","","",""
"","psychophysics","284","522235","0.0-2.0-2.93-0.93","btm","[""L""]","","","","","","null","key","null","null","16.686616666666428","798","448.5","2","1","1","1","1","","",""
"","psychophysics","285","523730","0.0-2.0-0.94","btm","[""L""]","","","","","","792","key","z","z","16.685806818182094","798","448.5","1","1","1","1","1","true","",""
"","psychophysics","286","524738","0.0-2.0-1.94","btm","[""L""]","","","","","","null","key","null","null","16.6874000000001","798","448.5","1","1","1","1","1","","",""
"","psychophysics","287","525747","0.0-2.0-2.94-0.94","btm","[""L""]","","","","","","null","key","null","null","16.68605084745687","798","448.5","1","1","1","1","1","","",""
"","psychophysics","288","527266","0.0-2.0-0.95","btm","[""L""]","","","","","","815","key","z","z","16.68628888888957","798","448.5","1","1","0","1","1","true","",""
"","psychophysics","289","528274","0.0-2.0-1.95","btm","[""L""]","","","","","","null","key","null","null","16.686633333334854","798","448.5","1","1","0","1","1","","",""
"","psychophysics","290","529283","0.0-2.0-2.95-0.95","btm","[""L""]","","","","","","null","key","null","null","16.686898305084778","798","448.5","1","1","0","1","1","","",""
"","psychophysics","291","531450","0.0-2.0-0.96","btm","[""L""]","","","","","","1464","key","z","z","16.686224806201896","798","448.5","1","0","1","1","1","true","",""
"","psychophysics","292","532458","0.0-2.0-1.96","btm","[""L""]","","","","","","null","key","null","null","16.68647457627082","798","448.5","1","0","1","1","1","","",""
"","psychophysics","293","533469","0.0-2.0-2.96-0.96","btm","[""L""]","","","","","","null","key","null","null","16.686533333333987","798","448.5","1","0","1","1","1","","",""
"","psychophysics","294","535610","0.0-2.0-0.97","btm","[""L""]","","","","","","1438","key","z","z","16.686133858267453","798","448.5","2","0","0","1","0","false","",""
"","psychophysics","295","536619","0.0-2.0-1.97","btm","[""L""]","","","","","","null","key","null","null","16.686883333333146","798","448.5","2","0","0","1","0","","",""
"","psychophysics","296","537629","0.0-2.0-3.97-0.97","btm","[""L""]","","","","","","null","key","null","null","16.685711864405707","798","448.5","2","0","0","1","0","","",""
"","psychophysics","297","539789","0.0-2.0-0.98","btm","[""L""]","","","","","","1456","key","m","m","16.686488372092352","798","448.5","1","0","0","0","0","false","",""
"","psychophysics","298","540796","0.0-2.0-1.98","btm","[""L""]","","","","","","null","key","null","null","16.685949152542705","798","448.5","1","0","0","0","0","","",""
"","psychophysics","299","541807","0.0-2.0-3.98-0.98","btm","[""L""]","","","","","","null","key","null","null","16.68621666666586","798","448.5","1","0","0","0","0","","",""
"","psychophysics","300","543970","0.0-2.0-0.99","btm","[""L""]","","","","","","1460","key","z","z","16.685890624999956","798","448.5","2","0","0","0","1","false","",""
"","psychophysics","301","544979","0.0-2.0-1.99","btm","[""L""]","","","","","","null","key","null","null","16.686016666668003","798","448.5","2","0","0","0","1","","",""
"","psychophysics","302","545988","0.0-2.0-3.99-0.99","btm","[""L""]","","","","","","null","key","null","null","16.68561016949154","798","448.5","2","0","0","0","1","","",""
"","html-keyboard-response","303","552587","0.0-2.0-4.99-0.99","btm","[""L""]","","","","","","6592","","","g","","","","","","","","","","<p>You have finished block 1 of 5.<p>You correctly predicted 67% of the races.<p>On the next screen, you will be given a 30 second break. Press the <b>g</b> key to start your break.",""
"","html-keyboard-response","304","553589","0.0-2.0-4.99-1.99-0.99","btm","[""L""]","","","","","","null","","","null","","","","","","","","","","<p>The experiment will resume in 30 seconds. ",""
"","html-keyboard-response","305","554593","0.0-2.0-4.99-1.99-1.99","btm","[""L""]","","","","","","null","","","null","","","","","","","","","","<p>The experiment will resume in 29 seconds. ",""
"","html-keyboard-response","306","555595","0.0-2.0-4.99-1.99-2.99","btm","[""L""]","","","","","","null","","","null","","","","","","","","","","<p>The experiment will resume in 28 seconds. ",""
"","html-keyboard-response","307","556597","0.0-2.0-4.99-1.99-3.99","btm","[""L""]","","","","","","null","","","null","","","","","","","","","","<p>The experiment will resume in 27 seconds. ",""
"","html-keyboard-response","308","557599","0.0-2.0-4.99-1.99-4.99","btm","[""L""]","","","","","","null","","","null","","","","","","","","","","<p>The experiment will resume in 26 seconds. ",""
"","html-keyboard-response","309","558601","0.0-2.0-4.99-1.99-5.99","btm","[""L""]","","","","","","null","","","null","","","","","","","","","","<p>The experiment will resume in 25 seconds. ",""
"","html-keyboard-response","310","559603","0.0-2.0-4.99-1.99-6.99","btm","[""L""]","","","","","","null","","","null","","","","","","","","","","<p>The experiment will resume in 24 seconds. ",""
"","html-keyboard-response","311","560606","0.0-2.0-4.99-1.99-7.99","btm","[""L""]","","","","","","null","","","null","","","","","","","","","","<p>The experiment will resume in 23 seconds. ",""
"","html-keyboard-response","312","561607","0.0-2.0-4.99-1.99-8.99","btm","[""L""]","","","","","","null","","","null","","","","","","","","","","<p>The experiment will resume in 22 seconds. ",""
"","html-keyboard-response","313","562609","0.0-2.0-4.99-1.99-9.99","btm","[""L""]","","","","","","null","","","null","","","","","","","","","","<p>The experiment will resume in 21 seconds. ",""
"","html-keyboard-response","314","563611","0.0-2.0-4.99-1.99-10.99","btm","[""L""]","","","","","","null","","","null","","","","","","","","","","<p>The experiment will resume in 20 seconds. ",""
"","html-keyboard-response","315","564614","0.0-2.0-4.99-1.99-11.99","btm","[""L""]","","","","","","null","","","null","","","","","","","","","","<p>The experiment will resume in 19 seconds. ",""
"","html-keyboard-response","316","565617","0.0-2.0-4.99-1.99-12.99","btm","[""L""]","","","","","","null","","","null","","","","","","","","","","<p>The experiment will resume in 18 seconds. ",""
"","html-keyboard-response","317","566619","0.0-2.0-4.99-1.99-13.99","btm","[""L""]","","","","","","null","","","null","","","","","","","","","","<p>The experiment will resume in 17 seconds. ",""
"","html-keyboard-response","318","567621","0.0-2.0-4.99-1.99-14.99","btm","[""L""]","","","","","","null","","","null","","","","","","","","","","<p>The experiment will resume in 16 seconds. ",""
"","html-keyboard-response","319","568623","0.0-2.0-4.99-1.99-15.99","btm","[""L""]","","","","","","null","","","null","","","","","","","","","","<p>The experiment will resume in 15 seconds. ",""
"","html-keyboard-response","320","569625","0.0-2.0-4.99-1.99-16.99","btm","[""L""]","","","","","","null","","","null","","","","","","","","","","<p>The experiment will resume in 14 seconds. ",""
"","html-keyboard-response","321","570627","0.0-2.0-4.99-1.99-17.99","btm","[""L""]","","","","","","null","","","null","","","","","","","","","","<p>The experiment will resume in 13 seconds. ",""
"","html-keyboard-response","322","571629","0.0-2.0-4.99-1.99-18.99","btm","[""L""]","","","","","","null","","","null","","","","","","","","","","<p>The experiment will resume in 12 seconds. ",""
"","html-keyboard-response","323","572630","0.0-2.0-4.99-1.99-19.99","btm","[""L""]","","","","","","null","","","null","","","","","","","","","","<p>The experiment will resume in 11 seconds. ",""
"","html-keyboard-response","324","573631","0.0-2.0-4.99-1.99-20.99","btm","[""L""]","","","","","","null","","","null","","","","","","","","","","<p>The experiment will resume in 10 seconds. ",""
"","html-keyboard-response","325","574633","0.0-2.0-4.99-1.99-21.99","btm","[""L""]","","","","","","null","","","null","","","","","","","","","","<p>The experiment will resume in 9 seconds. ",""
"","html-keyboard-response","326","575634","0.0-2.0-4.99-1.99-22.99","btm","[""L""]","","","","","","null","","","null","","","","","","","","","","<p>The experiment will resume in 8 seconds. ",""
"","html-keyboard-response","327","576636","0.0-2.0-4.99-1.99-23.99","btm","[""L""]","","","","","","null","","","null","","","","","","","","","","<p>The experiment will resume in 7 seconds. ",""
"","html-keyboard-response","328","577638","0.0-2.0-4.99-1.99-24.99","btm","[""L""]","","","","","","null","","","null","","","","","","","","","","<p>The experiment will resume in 6 seconds. ",""
"","html-keyboard-response","329","578641","0.0-2.0-4.99-1.99-25.99","btm","[""L""]","","","","","","null","","","null","","","","","","","","","","<p>The experiment will resume in 5 seconds. ",""
"","html-keyboard-response","330","579642","0.0-2.0-4.99-1.99-26.99","btm","[""L""]","","","","","","null","","","null","","","","","","","","","","<p>The experiment will resume in 4 seconds. ",""
"","html-keyboard-response","331","580644","0.0-2.0-4.99-1.99-27.99","btm","[""L""]","","","","","","null","","","null","","","","","","","","","","<p>The experiment will resume in 3 seconds. ",""
"","html-keyboard-response","332","581647","0.0-2.0-4.99-1.99-28.99","btm","[""L""]","","","","","","null","","","null","","","","","","","","","","<p>The experiment will resume in 2 seconds. ",""
"","html-keyboard-response","333","582648","0.0-2.0-4.99-1.99-29.99","btm","[""L""]","","","","","","null","","","null","","","","","","","","","","<p>The experiment will resume in 1 seconds. ",""
"","psychophysics","334","584924","0.0-2.0-0.100","btm","[""L""]","","","","","","1569","key","m","m","16.81147794117672","798","448.5","2","1","1","1","1","true","",""
"","psychophysics","335","585932","0.0-2.0-1.100","btm","[""L""]","","","","","","null","key","null","null","16.68701694915229","798","448.5","2","1","1","1","1","","",""
"","psychophysics","336","586942","0.0-2.0-2.100-0.100","btm","[""L""]","","","","","","null","key","null","null","16.68668333333335","798","448.5","2","1","1","1","1","","",""
"","psychophysics","337","588538","0.0-2.0-0.101","btm","[""L""]","","","","","","892","key","z","z","16.68559574468081","798","448.5","2","0","0","0","0","false","",""
"","psychophysics","338","589547","0.0-2.0-1.101","btm","[""L""]","","","","","","null","key","null","null","16.68693333333358","798","448.5","2","0","0","0","0","","",""
"","psychophysics","339","590557","0.0-2.0-3.101-0.101","btm","[""L""]","","","","","","null","key","null","null","16.6869322033895","798","448.5","2","0","0","0","0","","",""
"","psychophysics","340","592026","0.0-2.0-0.102","btm","[""L""]","","","","","","762","key","m","m","16.686402298849952","798","448.5","2","0","1","1","1","true","",""
"","psychophysics","341","593034","0.0-2.0-1.102","btm","[""L""]","","","","","","null","key","null","null","16.686983333332076","798","448.5","2","0","1","1","1","","",""
"","psychophysics","342","594042","0.0-2.0-2.102-0.102","btm","[""L""]","","","","","","null","key","null","null","16.685559322033473","798","448.5","2","0","1","1","1","","",""
"","psychophysics","343","595715","0.0-2.0-0.103","btm","[""L""]","","","","","","968","key","z","z","16.68581818181885","798","448.5","2","0","0","0","0","false","",""
"","psychophysics","344","596723","0.0-2.0-1.103","btm","[""L""]","","","","","","null","key","null","null","16.68613333333245","798","448.5","2","0","0","0","0","","",""
"","psychophysics","345","597731","0.0-2.0-3.103-0.103","btm","[""L""]","","","","","","null","key","null","null","16.686372881356657","798","448.5","2","0","0","0","0","","",""
"","psychophysics","346","599074","0.0-2.0-0.104","btm","[""L""]","","","","","","639","key","m","m","16.686062500000116","798","448.5","2","1","1","1","1","true","",""
"","psychophysics","347","600082","0.0-2.0-1.104","btm","[""L""]","","","","","","null","key","null","null","16.685016949152004","798","448.5","2","1","1","1","1","","",""
"","psychophysics","348","601092","0.0-2.0-2.104-0.104","btm","[""L""]","","","","","","null","key","null","null","16.68686666666763","798","448.5","2","1","1","1","1","","",""
"","psychophysics","349","602506","0.0-2.0-0.105","btm","[""L""]","","","","","","710","key","m","m","16.68567469879474","798","448.5","2","0","1","1","1","true","",""
"","psychophysics","350","603514","0.0-2.0-1.105","btm","[""L""]","","","","","","null","key","null","null","16.686066666666495","798","448.5","2","0","1","1","1","","",""
"","psychophysics","351","604523","0.0-2.0-2.105-0.105","btm","[""L""]","","","","","","null","key","null","null","16.687000000000914","798","448.5","2","0","1","1","1","","",""
"","psychophysics","352","606348","0.0-2.0-0.106","btm","[""L""]","","","","","","1118","key","z","z","16.686568807339544","798","448.5","1","1","0","1","1","true","",""
"","psychophysics","353","607357","0.0-2.0-1.106","btm","[""L""]","","","","","","null","key","null","null","16.686169491526353","798","448.5","1","1","0","1","1","","",""
"","psychophysics","354","608367","0.0-2.0-2.106-0.106","btm","[""L""]","","","","","","null","key","null","null","16.687066666665487","798","448.5","1","1","0","1","1","","",""
"","psychophysics","355","609858","0.0-2.0-0.107","btm","[""L""]","","","","","","788","key","z","z","16.6861590909089","798","448.5","1","1","0","1","1","true","",""
"","psychophysics","356","610866","0.0-2.0-1.107","btm","[""L""]","","","","","","null","key","null","null","16.686949152542848","798","448.5","1","1","0","1","1","","",""
"","psychophysics","357","611876","0.0-2.0-2.107-0.107","btm","[""L""]","","","","","","null","key","null","null","16.686483333333552","798","448.5","1","1","0","1","1","","",""
"","psychophysics","358","613458","0.0-2.0-0.108","btm","[""L""]","","","","","","879","key","z","z","16.686627659573904","798","448.5","1","0","0","1","1","true","",""
"","psychophysics","359","614466","0.0-2.0-1.108","btm","[""L""]","","","","","","null","key","null","null","16.685983050847426","798","448.5","1","0","0","1","1","","",""
"","psychophysics","360","615475","0.0-2.0-2.108-0.108","btm","[""L""]","","","","","","null","key","null","null","16.68701666666699","798","448.5","1","0","0","1","1","","",""
"","psychophysics","361","618554","0.0-2.0-0.109","btm","[""L""]","","","","","","2375","key","m","m","16.685814207650676","798","448.5","1","0","0","0","1","false","",""
"","psychophysics","362","619563","0.0-2.0-1.109","btm","[""L""]","","","","","","null","key","null","null","16.68640000000014","798","448.5","1","0","0","0","1","","",""
"","psychophysics","363","620573","0.0-2.0-3.109-0.109","btm","[""L""]","","","","","","null","key","null","null","16.68679661016864","798","448.5","1","0","0","0","1","","",""
"","psychophysics","364","622202","0.0-2.0-0.110","btm","[""L""]","","","","","","925","key","z","z","16.68659793814409","798","448.5","1","0","0","1","1","true","",""
"","psychophysics","365","623209","0.0-2.0-1.110","btm","[""L""]","","","","","","null","key","null","null","16.684796610170327","798","448.5","1","0","0","1","1","","",""
"","psychophysics","366","624218","0.0-2.0-2.110-0.110","btm","[""L""]","","","","","","null","key","null","null","16.686266666666295","798","448.5","1","0","0","1","1","","",""
"","psychophysics","367","625914","0.0-2.0-0.111","btm","[""L""]","","","","","","992","key","m","m","16.685460000000894","798","448.5","2","1","0","1","1","true","",""
"","psychophysics","368","626922","0.0-2.0-1.111","btm","[""L""]","","","","","","null","key","null","null","16.68630000000121","798","448.5","2","1","0","1","1","","",""
"","psychophysics","369","627930","0.0-2.0-2.111-0.111","btm","[""L""]","","","","","","null","key","null","null","16.6859999999988","798","448.5","2","1","0","1","1","","",""
"","psychophysics","370","630250","0.0-2.0-0.112","btm","[""L""]","","","","","","1616","key","z","z","16.686057971014332","798","448.5","2","0","1","1","0","false","",""
"","psychophysics","371","631260","0.0-2.0-1.112","btm","[""L""]","","","","","","null","key","null","null","16.686266666666295","798","448.5","2","0","1","1","0","","",""
"","psychophysics","372","632268","0.0-2.0-3.112-0.112","btm","[""L""]","","","","","","null","key","null","null","16.685898305084635","798","448.5","2","0","1","1","0","","",""
"","psychophysics","373","633914","0.0-2.0-0.113","btm","[""L""]","","","","","","942","key","m","m","16.685948979591817","798","448.5","2","1","1","0","1","true","",""
"","psychophysics","374","634922","0.0-2.0-1.113","btm","[""L""]","","","","","","null","key","null","null","16.685881355931286","798","448.5","2","1","1","0","1","","",""
"","psychophysics","375","635932","0.0-2.0-2.113-0.113","btm","[""L""]","","","","","","null","key","null","null","16.68666666666783","798","448.5","2","1","1","0","1","","",""
"","psychophysics","376","637810","0.0-2.0-0.114","btm","[""L""]","","","","","","1174","key","z","z","16.685801801802423","798","448.5","1","1","0","1","1","true","",""
"","psychophysics","377","638818","0.0-2.0-1.114","btm","[""L""]","","","","","","null","key","null","null","16.687283333334683","798","448.5","1","1","0","1","1","","",""
"","psychophysics","378","639826","0.0-2.0-2.114-0.114","btm","[""L""]","","","","","","null","key","null","null","16.685169491526214","798","448.5","1","1","0","1","1","","",""
"","psychophysics","379","642603","0.0-2.0-0.115","btm","[""L""]","","","","","","2072","key","z","z","16.686333333333305","798","448.5","1","0","0","0","1","true","",""
"","psychophysics","380","643610","0.0-2.0-1.115","btm","[""L""]","","","","","","null","key","null","null","16.68658333333248","798","448.5","1","0","0","0","1","","",""
"","psychophysics","381","644618","0.0-2.0-2.115-0.115","btm","[""L""]","","","","","","null","key","null","null","16.686813559321987","798","448.5","1","0","0","0","1","","",""
"","psychophysics","382","647402","0.0-2.0-0.116","btm","[""L""]","","","","","","2080","key","z","z","16.68629518072317","798","448.5","1","1","0","1","1","true","",""
"","psychophysics","383","648413","0.0-2.0-1.116","btm","[""L""]","","","","","","null","key","null","null","16.68693333333358","798","448.5","1","1","0","1","1","","",""
"","psychophysics","384","649421","0.0-2.0-2.116-0.116","btm","[""L""]","","","","","","null","key","null","null","16.685525423728752","798","448.5","1","1","0","1","1","","",""
"","psychophysics","385","651350","0.0-2.0-0.117","btm","[""L""]","","","","","","1225","key","m","m","16.686078260869355","798","448.5","2","0","0","1","1","true","",""
"","psychophysics","386","652358","0.0-2.0-1.117","btm","[""L""]","","","","","","null","key","null","null","16.685559322033473","798","448.5","2","0","0","1","1","","",""
"","psychophysics","387","653368","0.0-2.0-2.117-0.117","btm","[""L""]","","","","","","null","key","null","null","16.687199999999333","798","448.5","2","0","0","1","1","","",""
"","psychophysics","388","655498","0.0-2.0-0.118","btm","[""L""]","","","","","","1426","key","m","m","16.685650793651657","798","448.5","2","1","0","1","1","true","",""
"","psychophysics","389","656506","0.0-2.0-1.118","btm","[""L""]","","","","","","null","key","null","null","16.687266666667224","798","448.5","2","1","0","1","1","","",""
"","psychophysics","390","657514","0.0-2.0-2.118-0.118","btm","[""L""]","","","","","","null","key","null","null","16.686508474575547","798","448.5","2","1","0","1","1","","",""
"","psychophysics","391","659529","0.0-2.0-0.119","btm","[""L""]","","","","","","1312","key","m","m","16.686291666666513","798","448.5","2","1","0","1","1","true","",""
"","psychophysics","392","660537","0.0-2.0-1.119","btm","[""L""]","","","","","","null","key","null","null","16.68603389830352","798","448.5","2","1","0","1","1","","",""
"","psychophysics","393","661546","0.0-2.0-2.119-0.119","btm","[""L""]","","","","","","null","key","null","null","16.687183333333813","798","448.5","2","1","0","1","1","","",""
"","psychophysics","394","663321","0.0-2.0-0.120","btm","[""L""]","","","","","","1072","key","m","m","16.686219047618632","798","448.5","2","1","0","1","1","true","",""
"","psychophysics","395","664331","0.0-2.0-1.120","btm","[""L""]","","","","","","null","key","null","null","16.68638333333462","798","448.5","2","1","0","1","1","","",""
"","psychophysics","396","665339","0.0-2.0-2.120-0.120","btm","[""L""]","","","","","","null","key","null","null","16.686372881356657","798","448.5","2","1","0","1","1","","",""
"","psychophysics","397","667530","0.0-2.0-0.121","btm","[""L""]","","","","","","1487","key","m","m","16.68629230769226","798","448.5","1","0","0","0","0","false","",""
"","psychophysics","398","668538","0.0-2.0-1.121","btm","[""L""]","","","","","","null","key","null","null","16.687550000000435","798","448.5","1","0","0","0","0","","",""
"","psychophysics","399","669546","0.0-2.0-3.121-0.121","btm","[""L""]","","","","","","null","key","null","null","16.687254237287316","798","448.5","1","0","0","0","0","","",""
"","psychophysics","400","671745","0.0-2.0-0.122","btm","[""L""]","","","","","","1496","key","z","z","16.686045801526518","798","448.5","1","1","1","1","1","true","",""
"","psychophysics","401","672753","0.0-2.0-1.122","btm","[""L""]","","","","","","null","key","null","null","16.686372881356657","798","448.5","1","1","1","1","1","","",""
"","psychophysics","402","673762","0.0-2.0-2.122-0.122","btm","[""L""]","","","","","","null","key","null","null","16.684583333332558","798","448.5","1","1","1","1","1","","",""
"","psychophysics","403","675578","0.0-2.0-0.123","btm","[""L""]","","","","","","1112","key","z","z","16.686046296296237","798","448.5","1","0","1","1","1","true","",""
"","psychophysics","404","676585","0.0-2.0-1.123","btm","[""L""]","","","","","","null","key","null","null","16.684694915256163","798","448.5","1","0","1","1","1","","",""
"","psychophysics","405","677596","0.0-2.0-2.123-0.123","btm","[""L""]","","","","","","null","key","null","null","16.687266666667224","798","448.5","1","0","1","1","1","","",""
"","psychophysics","406","680922","0.0-2.0-0.124","btm","[""L""]","","","","","","2622","key","z","z","16.68606565656573","798","448.5","1","1","1","0","1","true","",""
"","psychophysics","407","681929","0.0-2.0-1.124","btm","[""L""]","","","","","","null","key","null","null","16.68723728813594","798","448.5","1","1","1","0","1","","",""
"","psychophysics","408","682940","0.0-2.0-2.124-0.124","btm","[""L""]","","","","","","null","key","null","null","16.68670000000081","798","448.5","1","1","1","0","1","","",""
"","psychophysics","409","685034","0.0-2.0-0.125","btm","[""L""]","","","","","","1390","key","m","m","16.685935483870825","798","448.5","2","0","1","1","1","true","",""
"","psychophysics","410","686041","0.0-2.0-1.125","btm","[""L""]","","","","","","null","key","null","null","16.686816666667195","798","448.5","2","0","1","1","1","","",""
"","psychophysics","411","687050","0.0-2.0-2.125-0.125","btm","[""L""]","","","","","","null","key","null","null","16.686813559321987","798","448.5","2","0","1","1","1","","",""
"","psychophysics","412","689985","0.0-2.0-0.126","btm","[""L""]","","","","","","2232","key","z","z","16.686194285714468","798","448.5","1","1","0","1","0","true","",""
"","psychophysics","413","690994","0.0-2.0-1.126","btm","[""L""]","","","","","","null","key","null","null","16.687049999999967","798","448.5","1","1","0","1","0","","",""
"","psychophysics","414","692002","0.0-2.0-2.126-0.126","btm","[""L""]","","","","","","null","key","null","null","16.684983050847283","798","448.5","1","1","0","1","0","","",""
"","psychophysics","415","694578","0.0-2.0-0.127","btm","[""L""]","","","","","","1871","key","m","m","16.686267973855898","798","448.5","2","1","1","1","0","true","",""
"","psychophysics","416","695585","0.0-2.0-1.127","btm","[""L""]","","","","","","null","key","null","null","16.68676666666676","798","448.5","2","1","1","1","0","","",""
"","psychophysics","417","696594","0.0-2.0-2.127-0.127","btm","[""L""]","","","","","","null","key","null","null","16.68652542372889","798","448.5","2","1","1","1","0","","",""
"","psychophysics","418","698857","0.0-2.0-0.128","btm","[""L""]","","","","","","1555","key","m","m","16.686170370369737","798","448.5","2","0","1","1","1","true","",""
"","psychophysics","419","699865","0.0-2.0-1.128","btm","[""L""]","","","","","","null","key","null","null","16.68657627118696","798","448.5","2","0","1","1","1","","",""
"","psychophysics","420","700874","0.0-2.0-2.128-0.128","btm","[""L""]","","","","","","null","key","null","null","16.68703333333251","798","448.5","2","0","1","1","1","","",""
"","psychophysics","421","702738","0.0-2.0-0.129","btm","[""L""]","","","","","","1160","key","m","m","16.686327272726604","798","448.5","2","1","1","1","1","true","",""
"","psychophysics","422","703746","0.0-2.0-1.129","btm","[""L""]","","","","","","null","key","null","null","16.68620000000034","798","448.5","2","1","1","1","1","","",""
"","psychophysics","423","704755","0.0-2.0-2.129-0.129","btm","[""L""]","","","","","","null","key","null","null","16.686915254238126","798","448.5","2","1","1","1","1","","",""
"","psychophysics","424","706747","0.0-2.0-0.130","btm","[""L""]","","","","","","1286","key","m","m","16.68642857142904","798","448.5","1","1","1","1","0","false","",""
"","psychophysics","425","707754","0.0-2.0-1.130","btm","[""L""]","","","","","","null","key","null","null","16.685983050847426","798","448.5","1","1","1","1","0","","",""
"","psychophysics","426","708765","0.0-2.0-3.130-0.130","btm","[""L""]","","","","","","null","key","null","null","16.686650000000373","798","448.5","1","1","1","1","0","","",""
"","psychophysics","427","710553","0.0-2.0-0.131","btm","[""L""]","","","","","","1085","key","z","z","16.6854622641519","798","448.5","1","0","0","1","0","true","",""
"","psychophysics","428","711560","0.0-2.0-1.131","btm","[""L""]","","","","","","null","key","null","null","16.68593220339133","798","448.5","1","0","0","1","0","","",""
"","psychophysics","429","712570","0.0-2.0-2.131-0.131","btm","[""L""]","","","","","","null","key","null","null","16.686716666666324","798","448.5","1","0","0","1","0","","",""
"","psychophysics","430","714356","0.0-2.0-0.132","btm","[""L""]","","","","","","1082","key","m","m","16.68590566037741","798","448.5","1","1","1","1","0","false","",""
"","psychophysics","431","715364","0.0-2.0-1.132","btm","[""L""]","","","","","","null","key","null","null","16.68610169491494","798","448.5","1","1","1","1","0","","",""
"","psychophysics","432","716374","0.0-2.0-3.132-0.132","btm","[""L""]","","","","","","null","key","null","null","16.686250000000776","798","448.5","1","1","1","1","0","","",""
"","psychophysics","433","717794","0.0-2.0-0.133","btm","[""L""]","","","","","","716","key","z","z","16.68576190476112","798","448.5","2","1","1","1","1","false","",""
"","psychophysics","434","718802","0.0-2.0-1.133","btm","[""L""]","","","","","","null","key","null","null","16.68588135593326","798","448.5","2","1","1","1","1","","",""
"","psychophysics","435","719811","0.0-2.0-3.133-0.133","btm","[""L""]","","","","","","null","key","null","null","16.687083333332946","798","448.5","2","1","1","1","1","","",""
"","psychophysics","436","721364","0.0-2.0-0.134","btm","[""L""]","","","","","","849","key","m","m","16.686945652174156","798","448.5","2","1","0","1","1","true","",""
"","psychophysics","437","722371","0.0-2.0-1.134","btm","[""L""]","","","","","","null","key","null","null","16.68657627118696","798","448.5","2","1","0","1","1","","",""
"","psychophysics","438","723382","0.0-2.0-2.134-0.134","btm","[""L""]","","","","","","null","key","null","null","16.686916666666125","798","448.5","2","1","0","1","1","","",""
"","psychophysics","439","724722","0.0-2.0-0.135","btm","[""L""]","","","","","","635","key","m","m","16.685531645569704","798","448.5","1","1","1","0","1","false","",""
"","psychophysics","440","725729","0.0-2.0-1.135","btm","[""L""]","","","","","","null","key","null","null","16.686677966101126","798","448.5","1","1","1","0","1","","",""
"","psychophysics","441","726737","0.0-2.0-3.135-0.135","btm","[""L""]","","","","","","null","key","null","null","16.686966666666557","798","448.5","1","1","1","0","1","","",""
"","psychophysics","442","728339","0.0-2.0-0.136","btm","[""L""]","","","","","","897","key","z","z","16.68587368420987","798","448.5","1","0","1","0","1","true","",""
"","psychophysics","443","729346","0.0-2.0-1.136","btm","[""L""]","","","","","","null","key","null","null","16.685237288135657","798","448.5","1","0","1","0","1","","",""
"","psychophysics","444","730357","0.0-2.0-2.136-0.136","btm","[""L""]","","","","","","null","key","null","null","16.686466666666092","798","448.5","1","0","1","0","1","","",""
"","psychophysics","445","731843","0.0-2.0-0.137","btm","[""L""]","","","","","","782","key","m","m","16.68538636363651","798","448.5","1","0","1","1","0","false","",""
"","psychophysics","446","732852","0.0-2.0-1.137","btm","[""L""]","","","","","","null","key","null","null","16.685423728814584","798","448.5","1","0","1","1","0","","",""
"","psychophysics","447","733861","0.0-2.0-3.137-0.137","btm","[""L""]","","","","","","null","key","null","null","16.686549999999503","798","448.5","1","0","1","1","0","","",""
"","psychophysics","448","735290","0.0-2.0-0.138","btm","[""L""]","","","","","","725","key","m","m","16.686273809523776","798","448.5","2","1","1","1","1","true","",""
"","psychophysics","449","736297","0.0-2.0-1.138","btm","[""L""]","","","","","","null","key","null","null","16.686966666666557","798","448.5","2","1","1","1","1","","",""
"","psychophysics","450","737306","0.0-2.0-2.138-0.138","btm","[""L""]","","","","","","null","key","null","null","16.685949152542705","798","448.5","2","1","1","1","1","","",""
"","psychophysics","451","738594","0.0-2.0-0.139","btm","[""L""]","","","","","","584","key","m","m","16.686776315790333","798","448.5","2","1","1","1","1","true","",""
"","psychophysics","452","739602","0.0-2.0-1.139","btm","[""L""]","","","","","","null","key","null","null","16.686816666667195","798","448.5","2","1","1","1","1","","",""
"","psychophysics","453","740610","0.0-2.0-2.139-0.139","btm","[""L""]","","","","","","null","key","null","null","16.686423728812755","798","448.5","2","1","1","1","1","","",""
"","psychophysics","454","742122","0.0-2.0-0.140","btm","[""L""]","","","","","","807","key","m","m","16.686155555556372","798","448.5","2","0","1","1","1","true","",""
"","psychophysics","455","743128","0.0-2.0-1.140","btm","[""L""]","","","","","","null","key","null","null","16.68615254237301","798","448.5","2","0","1","1","1","","",""
"","psychophysics","456","744139","0.0-2.0-2.140-0.140","btm","[""L""]","","","","","","null","key","null","null","16.686083333333954","798","448.5","2","0","1","1","1","","",""
"","psychophysics","457","745692","0.0-2.0-0.141","btm","[""L""]","","","","","","848","key","z","z","16.685315217391295","798","448.5","2","0","0","0","0","false","",""
"","psychophysics","458","746700","0.0-2.0-1.141","btm","[""L""]","","","","","","null","key","null","null","16.68508474576145","798","448.5","2","0","0","0","0","","",""
"","psychophysics","459","747710","0.0-2.0-3.141-0.141","btm","[""L""]","","","","","","null","key","null","null","16.686750000001243","798","448.5","2","0","0","0","0","","",""
"","psychophysics","460","750130","0.0-2.0-0.142","btm","[""L""]","","","","","","1717","key","m","m","16.6852847222221","798","448.5","2","0","1","0","1","true","",""
"","psychophysics","461","751138","0.0-2.0-1.142","btm","[""L""]","","","","","","null","key","null","null","16.684508474577235","798","448.5","2","0","1","0","1","","",""
"","psychophysics","462","752148","0.0-2.0-2.142-0.142","btm","[""L""]","","","","","","null","key","null","null","16.68701666666699","798","448.5","2","0","1","0","1","","",""
"","psychophysics","463","754562","0.0-2.0-0.143","btm","[""L""]","","","","","","1710","key","m","m","16.68597902097964","798","448.5","2","1","0","1","1","true","",""
"","psychophysics","464","755569","0.0-2.0-1.143","btm","[""L""]","","","","","","null","key","null","null","16.687083333332946","798","448.5","2","1","0","1","1","","",""
"","psychophysics","465","756578","0.0-2.0-2.143-0.143","btm","[""L""]","","","","","","null","key","null","null","16.685423728812612","798","448.5","2","1","0","1","1","","",""
"","psychophysics","466","758402","0.0-2.0-0.144","btm","[""L""]","","","","","","1120","key","m","m","16.686675925926668","798","448.5","2","0","1","1","0","true","",""
"","psychophysics","467","759409","0.0-2.0-1.144","btm","[""L""]","","","","","","null","key","null","null","16.687350000000638","798","448.5","2","0","1","1","0","","",""
"","psychophysics","468","760418","0.0-2.0-2.144-0.144","btm","[""L""]","","","","","","null","key","null","null","16.685728813559052","798","448.5","2","0","1","1","0","","",""
"","psychophysics","469","762498","0.0-2.0-0.145","btm","[""L""]","","","","","","1376","key","m","m","16.686129032258666","798","448.5","1","0","0","1","1","false","",""
"","psychophysics","470","763504","0.0-2.0-1.145","btm","[""L""]","","","","","","null","key","null","null","16.68649152542417","798","448.5","1","0","0","1","1","","",""
"","psychophysics","471","764515","0.0-2.0-3.145-0.145","btm","[""L""]","","","","","","null","key","null","null","16.6856666666669","798","448.5","1","0","0","1","1","","",""
"","psychophysics","472","766716","0.0-2.0-0.146","btm","[""L""]","","","","","","1498","key","z","z","16.686076335877335","798","448.5","1","0","1","0","1","true","",""
"","psychophysics","473","767723","0.0-2.0-1.146","btm","[""L""]","","","","","","null","key","null","null","16.686542372880268","798","448.5","1","0","1","0","1","","",""
"","psychophysics","474","768734","0.0-2.0-2.146-0.146","btm","[""L""]","","","","","","null","key","null","null","16.686999999999536","798","448.5","1","0","1","0","1","","",""
"","psychophysics","475","770403","0.0-2.0-0.147","btm","[""L""]","","","","","","965","key","m","m","16.68565656565661","798","448.5","2","0","1","0","1","true","",""
"","psychophysics","476","771410","0.0-2.0-1.147","btm","[""L""]","","","","","","null","key","null","null","16.68584745762854","798","448.5","2","0","1","0","1","","",""
"","psychophysics","477","772422","0.0-2.0-2.147-0.147","btm","[""L""]","","","","","","null","key","null","null","16.686616666665454","798","448.5","2","0","1","0","1","","",""
"","psychophysics","478","774158","0.0-2.0-0.148","btm","[""L""]","","","","","","1032","key","z","z","16.685699029126006","798","448.5","1","0","0","1","0","true","",""
"","psychophysics","479","775164","0.0-2.0-1.148","btm","[""L""]","","","","","","null","key","null","null","16.686372881354686","798","448.5","1","0","0","1","0","","",""
"","psychophysics","480","776176","0.0-2.0-2.148-0.148","btm","[""L""]","","","","","","null","key","null","null","16.686816666667195","798","448.5","1","0","0","1","0","","",""
"","psychophysics","481","777697","0.0-2.0-0.149","btm","[""L""]","","","","","","817","key","m","m","16.686299999999918","798","448.5","2","0","1","1","1","true","",""
"","psychophysics","482","778704","0.0-2.0-1.149","btm","[""L""]","","","","","","null","key","null","null","16.686389830508034","798","448.5","2","0","1","1","1","","",""
"","psychophysics","483","779713","0.0-2.0-2.149-0.149","btm","[""L""]","","","","","","null","key","null","null","16.68658333333248","798","448.5","2","0","1","1","1","","",""
"","psychophysics","484","781001","0.0-2.0-0.150","btm","[""L""]","","","","","","585","key","z","z","16.686223684209644","798","448.5","1","0","0","1","1","true","",""
"","psychophysics","485","782008","0.0-2.0-1.150","btm","[""L""]","","","","","","null","key","null","null","16.685915254237983","798","448.5","1","0","0","1","1","","",""
"","psychophysics","486","783017","0.0-2.0-2.150-0.150","btm","[""L""]","","","","","","null","key","null","null","16.68629999999927","798","448.5","1","0","0","1","1","","",""
"","psychophysics","487","784697","0.0-2.0-0.151","btm","[""L""]","","","","","","977","key","z","z","16.686030303030464","798","448.5","1","1","0","1","1","true","",""
"","psychophysics","488","785707","0.0-2.0-1.151","btm","[""L""]","","","","","","null","key","null","null","16.687016666665052","798","448.5","1","1","0","1","1","","",""
"","psychophysics","489","786715","0.0-2.0-2.151-0.151","btm","[""L""]","","","","","","null","key","null","null","16.686644067796404","798","448.5","1","1","0","1","1","","",""
"","psychophysics","490","788113","0.0-2.0-0.152","btm","[""L""]","","","","","","691","key","z","z","16.6866024096387","798","448.5","1","1","0","1","1","true","",""
"","psychophysics","491","789124","0.0-2.0-1.152","btm","[""L""]","","","","","","null","key","null","null","16.685850000001178","798","448.5","1","1","0","1","1","","",""
"","psychophysics","492","790132","0.0-2.0-2.152-0.152","btm","[""L""]","","","","","","null","key","null","null","16.68615254237301","798","448.5","1","1","0","1","1","","",""
"","psychophysics","493","792011","0.0-2.0-0.153","btm","[""L""]","","","","","","1177","key","m","m","16.68645535714209","798","448.5","2","0","1","1","1","true","",""
"","psychophysics","494","793019","0.0-2.0-1.153","btm","[""L""]","","","","","","null","key","null","null","16.68540677966124","798","448.5","2","0","1","1","1","","",""
"","psychophysics","495","794030","0.0-2.0-2.153-0.153","btm","[""L""]","","","","","","null","key","null","null","16.68666666666589","798","448.5","2","0","1","1","1","","",""
"","psychophysics","496","796321","0.0-2.0-0.154","btm","[""L""]","","","","","","1589","key","m","m","16.686183823529383","798","448.5","2","0","0","1","0","true","",""
"","psychophysics","497","797329","0.0-2.0-1.154","btm","[""L""]","","","","","","null","key","null","null","16.687220338982595","798","448.5","2","0","0","1","0","","",""
"","psychophysics","498","798339","0.0-2.0-2.154-0.154","btm","[""L""]","","","","","","null","key","null","null","16.686483333333552","798","448.5","2","0","0","1","0","","",""
"","psychophysics","499","799929","0.0-2.0-0.155","btm","[""L""]","","","","","","886","key","z","z","16.6857872340417","798","448.5","1","1","0","1","0","true","",""
"","psychophysics","500","800937","0.0-2.0-1.155","btm","[""L""]","","","","","","null","key","null","null","16.684683333333428","798","448.5","1","1","0","1","0","","",""
"","psychophysics","501","801943","0.0-2.0-2.155-0.155","btm","[""L""]","","","","","","null","key","null","null","16.686305084745243","798","448.5","1","1","0","1","0","","",""
"","psychophysics","502","803585","0.0-2.0-0.156","btm","[""L""]","","","","","","939","key","m","m","16.686051546391965","798","448.5","1","0","1","0","0","false","",""
"","psychophysics","503","804594","0.0-2.0-1.156","btm","[""L""]","","","","","","null","key","null","null","16.68630000000121","798","448.5","1","0","1","0","0","","",""
"","psychophysics","504","805603","0.0-2.0-3.156-0.156","btm","[""L""]","","","","","","null","key","null","null","16.686288135593866","798","448.5","1","0","1","0","0","","",""
"","psychophysics","505","807249","0.0-2.0-0.157","btm","[""L""]","","","","","","939","key","z","z","16.68655102040823","798","448.5","1","1","0","1","0","true","",""
"","psychophysics","506","808257","0.0-2.0-1.157","btm","[""L""]","","","","","","null","key","null","null","16.686864406780057","798","448.5","1","1","0","1","0","","",""
"","psychophysics","507","809268","0.0-2.0-2.157-0.157","btm","[""L""]","","","","","","null","key","null","null","16.686600000001878","798","448.5","1","1","0","1","0","","",""
"","psychophysics","508","810537","0.0-2.0-0.158","btm","[""L""]","","","","","","566","key","z","z","16.685853333333508","798","448.5","1","0","0","1","1","true","",""
"","psychophysics","509","811545","0.0-2.0-1.158","btm","[""L""]","","","","","","null","key","null","null","16.686711864405847","798","448.5","1","0","0","1","1","","",""
"","psychophysics","510","812554","0.0-2.0-2.158-0.158","btm","[""L""]","","","","","","null","key","null","null","16.68685000000017","798","448.5","1","0","0","1","1","","",""
"","psychophysics","511","813970","0.0-2.0-0.159","btm","[""L""]","","","","","","712","key","m","m","16.68558333333238","798","448.5","2","1","0","1","1","true","",""
"","psychophysics","512","814977","0.0-2.0-1.159","btm","[""L""]","","","","","","null","key","null","null","16.68494915254256","798","448.5","2","1","0","1","1","","",""
"","psychophysics","513","815988","0.0-2.0-2.159-0.159","btm","[""L""]","","","","","","null","key","null","null","16.687183333333813","798","448.5","2","1","0","1","1","","",""
"","psychophysics","514","817265","0.0-2.0-0.160","btm","[""L""]","","","","","","574","key","m","m","16.685799999999194","798","448.5","1","1","1","1","1","false","",""
"","psychophysics","515","818274","0.0-2.0-1.160","btm","[""L""]","","","","","","null","key","null","null","16.687083333332946","798","448.5","1","1","1","1","1","","",""
"","psychophysics","516","819283","0.0-2.0-3.160-0.160","btm","[""L""]","","","","","","null","key","null","null","16.68571186440768","798","448.5","1","1","1","1","1","","",""
"","psychophysics","517","820849","0.0-2.0-0.161","btm","[""L""]","","","","","","863","key","m","m","16.686806451611883","798","448.5","2","0","0","1","1","true","",""
"","psychophysics","518","821856","0.0-2.0-1.161","btm","[""L""]","","","","","","null","key","null","null","16.686644067796404","798","448.5","2","0","0","1","1","","",""
"","psychophysics","519","822866","0.0-2.0-2.161-0.161","btm","[""L""]","","","","","","null","key","null","null","16.687116666667862","798","448.5","2","0","0","1","1","","",""
"","psychophysics","520","824185","0.0-2.0-0.162","btm","[""L""]","","","","","","616","key","m","m","16.686974358973274","798","448.5","1","1","1","1","1","false","",""
"","psychophysics","521","825191","0.0-2.0-1.162","btm","[""L""]","","","","","","null","key","null","null","16.686762711863917","798","448.5","1","1","1","1","1","","",""
"","psychophysics","522","826202","0.0-2.0-3.162-0.162","btm","[""L""]","","","","","","null","key","null","null","16.686416666665657","798","448.5","1","1","1","1","1","","",""
"","psychophysics","523","827836","0.0-2.0-0.163","btm","[""L""]","","","","","","931","key","z","z","16.685505154639838","798","448.5","1","1","1","1","0","true","",""
"","psychophysics","524","828843","0.0-2.0-1.163","btm","[""L""]","","","","","","null","key","null","null","16.686000000000774","798","448.5","1","1","1","1","0","","",""
"","psychophysics","525","829854","0.0-2.0-2.163-0.163","btm","[""L""]","","","","","","null","key","null","null","16.68723333333231","798","448.5","1","1","1","1","0","","",""
"","psychophysics","526","831449","0.0-2.0-0.164","btm","[""L""]","","","","","","891","key","m","m","16.685574468084056","798","448.5","1","1","0","1","0","false","",""
"","psychophysics","527","832457","0.0-2.0-1.164","btm","[""L""]","","","","","","null","key","null","null","16.68713333333338","798","448.5","1","1","0","1","0","","",""
"","psychophysics","528","833466","0.0-2.0-3.164-0.164","btm","[""L""]","","","","","","null","key","null","null","16.68569491525433","798","448.5","1","1","0","1","0","","",""
"","psychophysics","529","834905","0.0-2.0-0.165","btm","[""L""]","","","","","","735","key","z","z","16.68602352941217","798","448.5","1","1","1","1","1","true","",""
"","psychophysics","530","835912","0.0-2.0-1.165","btm","[""L""]","","","","","","null","key","null","null","16.686833333334654","798","448.5","1","1","1","1","1","","",""
"","psychophysics","531","836920","0.0-2.0-2.165-0.165","btm","[""L""]","","","","","","null","key","null","null","16.68566101694961","798","448.5","1","1","1","1","1","","",""
"","psychophysics","532","838537","0.0-2.0-0.166","btm","[""L""]","","","","","","914","key","m","m","16.685916666666646","798","448.5","2","0","0","1","1","true","",""
"","psychophysics","533","839545","0.0-2.0-1.166","btm","[""L""]","","","","","","null","key","null","null","16.686661016949753","798","448.5","2","0","0","1","1","","",""
"","psychophysics","534","840553","0.0-2.0-2.166-0.166","btm","[""L""]","","","","","","null","key","null","null","16.68621666666586","798","448.5","2","0","0","1","1","","",""
"","psychophysics","535","842225","0.0-2.0-0.167","btm","[""L""]","","","","","","968","key","z","z","16.686747474747598","798","448.5","2","1","1","0","1","false","",""
"","psychophysics","536","843232","0.0-2.0-1.167","btm","[""L""]","","","","","","null","key","null","null","16.6862372881358","798","448.5","2","1","1","0","1","","",""
"","psychophysics","537","844241","0.0-2.0-3.167-0.167","btm","[""L""]","","","","","","null","key","null","null","16.686533333333987","798","448.5","2","1","1","0","1","","",""
"","psychophysics","538","845633","0.0-2.0-0.168","btm","[""L""]","","","","","","689","key","m","m","16.685707317073206","798","448.5","2","1","1","1","1","true","",""
"","psychophysics","539","846641","0.0-2.0-1.168","btm","[""L""]","","","","","","null","key","null","null","16.68703333333251","798","448.5","2","1","1","1","1","","",""
"","psychophysics","540","847650","0.0-2.0-2.168-0.168","btm","[""L""]","","","","","","null","key","null","null","16.685932203389356","798","448.5","2","1","1","1","1","","",""
"","psychophysics","541","849185","0.0-2.0-0.169","btm","[""L""]","","","","","","831","key","m","m","16.686527472527974","798","448.5","2","0","1","0","1","true","",""
"","psychophysics","542","850194","0.0-2.0-1.169","btm","[""L""]","","","","","","null","key","null","null","16.687116666665922","798","448.5","2","0","1","0","1","","",""
"","psychophysics","543","851202","0.0-2.0-2.169-0.169","btm","[""L""]","","","","","","null","key","null","null","16.686711864407823","798","448.5","2","0","1","0","1","","",""
"","psychophysics","544","853017","0.0-2.0-0.170","btm","[""L""]","","","","","","1110","key","m","m","16.686333333333973","798","448.5","2","1","1","1","0","true","",""
"","psychophysics","545","854023","0.0-2.0-1.170","btm","[""L""]","","","","","","null","key","null","null","16.68654237288224","798","448.5","2","1","1","1","0","","",""
"","psychophysics","546","855033","0.0-2.0-2.170-0.170","btm","[""L""]","","","","","","null","key","null","null","16.68693333333358","798","448.5","2","1","1","1","0","","",""
"","psychophysics","547","856619","0.0-2.0-0.171","btm","[""L""]","","","","","","883","key","z","z","16.68641489361626","798","448.5","2","0","1","1","1","false","",""
"","psychophysics","548","857627","0.0-2.0-1.171","btm","[""L""]","","","","","","null","key","null","null","16.685322033898448","798","448.5","2","0","1","1","1","","",""
"","psychophysics","549","858637","0.0-2.0-3.171-0.171","btm","[""L""]","","","","","","null","key","null","null","16.687200000001273","798","448.5","2","0","1","1","1","","",""
"","psychophysics","550","860233","0.0-2.0-0.172","btm","[""L""]","","","","","","893","key","z","z","16.685382978724405","798","448.5","1","0","1","0","1","true","",""
"","psychophysics","551","861241","0.0-2.0-1.172","btm","[""L""]","","","","","","null","key","null","null","16.686366666667162","798","448.5","1","0","1","0","1","","",""
"","psychophysics","552","862249","0.0-2.0-2.172-0.172","btm","[""L""]","","","","","","null","key","null","null","16.68549152542403","798","448.5","1","0","1","0","1","","",""
"","psychophysics","553","863827","0.0-2.0-0.173","btm","[""L""]","","","","","","875","key","z","z","16.686127659573685","798","448.5","1","1","0","1","1","true","",""
"","psychophysics","554","864835","0.0-2.0-1.173","btm","[""L""]","","","","","","null","key","null","null","16.685864406779913","798","448.5","1","1","0","1","1","","",""
"","psychophysics","555","865845","0.0-2.0-2.173-0.173","btm","[""L""]","","","","","","null","key","null","null","16.686316666664787","798","448.5","1","1","0","1","1","","",""
"","psychophysics","556","867489","0.0-2.0-0.174","btm","[""L""]","","","","","","940","key","m","m","16.685257731958476","798","448.5","2","0","1","1","1","true","",""
"","psychophysics","557","868499","0.0-2.0-1.174","btm","[""L""]","","","","","","null","key","null","null","16.687266666667224","798","448.5","2","0","1","1","1","","",""
"","psychophysics","558","869507","0.0-2.0-2.174-0.174","btm","[""L""]","","","","","","null","key","null","null","16.685915254237983","798","448.5","2","0","1","1","1","","",""
"","psychophysics","559","871002","0.0-2.0-0.175","btm","[""L""]","","","","","","791","key","m","m","16.68852808988742","798","448.5","1","1","1","0","0","false","",""
"","psychophysics","560","872009","0.0-2.0-1.175","btm","[""L""]","","","","","","null","key","null","null","16.68620338983108","798","448.5","1","1","1","0","0","","",""
"","psychophysics","561","873020","0.0-2.0-3.175-0.175","btm","[""L""]","","","","","","null","key","null","null","16.686716666666324","798","448.5","1","1","1","0","0","","",""
"","psychophysics","562","874657","0.0-2.0-0.176","btm","[""L""]","","","","","","933","key","m","m","16.685587628865758","798","448.5","1","1","1","1","0","false","",""
"","psychophysics","563","875664","0.0-2.0-1.176","btm","[""L""]","","","","","","null","key","null","null","16.686338983049964","798","448.5","1","1","1","1","0","","",""
"","psychophysics","564","876674","0.0-2.0-3.176-0.176","btm","[""L""]","","","","","","null","key","null","null","16.687216666666792","798","448.5","1","1","1","1","0","","",""
"","psychophysics","565","877953","0.0-2.0-0.177","btm","[""L""]","","","","","","575","key","z","z","16.686400000001303","798","448.5","2","1","0","0","1","false","",""
"","psychophysics","566","878961","0.0-2.0-1.177","btm","[""L""]","","","","","","null","key","null","null","16.68676666666676","798","448.5","2","1","0","0","1","","",""
"","psychophysics","567","879969","0.0-2.0-3.177-0.177","btm","[""L""]","","","","","","null","key","null","null","16.68525423728703","798","448.5","2","1","0","0","1","","",""
"","psychophysics","568","883577","0.0-2.0-0.178","btm","[""L""]","","","","","","2904","key","m","m","16.686139534883807","798","448.5","2","0","0","1","1","true","",""
"","psychophysics","569","884584","0.0-2.0-1.178","btm","[""L""]","","","","","","null","key","null","null","16.68631666666673","798","448.5","2","0","0","1","1","","",""
"","psychophysics","570","885593","0.0-2.0-2.178-0.178","btm","[""L""]","","","","","","null","key","null","null","16.685559322033473","798","448.5","2","0","0","1","1","","",""
"","psychophysics","571","886977","0.0-2.0-0.179","btm","[""L""]","","","","","","681","key","z","z","16.686378048781147","798","448.5","1","1","1","1","1","true","",""
"","psychophysics","572","887987","0.0-2.0-1.179","btm","[""L""]","","","","","","null","key","null","null","16.687149999998898","798","448.5","1","1","1","1","1","","",""
"","psychophysics","573","888996","0.0-2.0-2.179-0.179","btm","[""L""]","","","","","","null","key","null","null","16.687457627117617","798","448.5","1","1","1","1","1","","",""
