"success","trial_type","trial_index","time_elapsed","internal_node_id","subject","condition","timeout","failed_images","failed_audio","failed_video","view_history","rt","response_type","key_press","response","avg_frame_time","center_x","center_y","outcome","p1conf","p2conf","p1rslt","p2rslt","correct","stimulus","question_order"
"true","fullscreen","0","3588","0.0-0.0-0.0","0uk","[""L""]","","","","","","","","","","","","","","","","","","","",""
"true","preload","1","3590","0.0-0.0-1.0","0uk","[""L""]","false","[]","[]","[]","","","","","","","","","","","","","","","",""
"","instructions","2","167487","0.0-1.0","0uk","[""L""]","","","","","[{""page_index"":0,""viewing_time"":126408},{""page_index"":1,""viewing_time"":20616},{""page_index"":2,""viewing_time"":16872}]","163896","","","","","","","","","","","","","",""
"","psychophysics","3","173175","0.0-2.0-0.0","0uk","[""L""]","","","","","","4981","key","z","z","16.686085043988232","798","448.5","1","1","1","1","1","true","",""
"","psychophysics","4","174185","0.0-2.0-1.0","0uk","[""L""]","","","","","","null","key","null","null","16.687118644067933","798","448.5","1","1","1","1","1","","",""
"","psychophysics","5","175196","0.0-2.0-2.0-0.0","0uk","[""L""]","","","","","","null","key","null","null","16.685883333333187","798","448.5","1","1","1","1","1","","",""
"","psychophysics","6","179062","0.0-2.0-0.1","0uk","[""L""]","","","","","","3162","key","m","m","16.686259740259796","798","448.5","2","1","1","1","1","true","",""
"","psychophysics","7","180070","0.0-2.0-1.1","0uk","[""L""]","","","","","","null","key","null","null","16.68535593220317","798","448.5","2","1","1","1","1","","",""
"","psychophysics","8","181082","0.0-2.0-2.1-0.1","0uk","[""L""]","","","","","","null","key","null","null","16.68728333333323","798","448.5","2","1","1","1","1","","",""
"","psychophysics","9","184418","0.0-2.0-0.2","0uk","[""L""]","","","","","","2632","key","m","m","16.68561306532666","798","448.5","1","1","1","1","0","false","",""
"","psychophysics","10","185422","0.0-2.0-1.2","0uk","[""L""]","","","","","","null","key","null","null","16.689762711864837","798","448.5","1","1","1","1","0","","",""
"","psychophysics","11","186433","0.0-2.0-3.2-0.2","0uk","[""L""]","","","","","","null","key","null","null","16.687355932203452","798","448.5","1","1","1","1","0","","",""
"","psychophysics","12","188843","0.0-2.0-0.3","0uk","[""L""]","","","","","","1705","key","m","m","16.686020833333412","798","448.5","2","1","0","1","0","true","",""
"","psychophysics","13","189852","0.0-2.0-1.3","0uk","[""L""]","","","","","","null","key","null","null","16.687220338983085","798","448.5","2","1","0","1","0","","",""
"","psychophysics","14","190861","0.0-2.0-2.3-0.3","0uk","[""L""]","","","","","","null","key","null","null","16.687149999999868","798","448.5","2","1","0","1","0","","",""
"","psychophysics","15","193299","0.0-2.0-0.4","0uk","[""L""]","","","","","","1734","key","m","m","16.686206896551724","798","448.5","2","1","0","1","1","true","",""
"","psychophysics","16","194306","0.0-2.0-1.4","0uk","[""L""]","","","","","","null","key","null","null","16.68518644067808","798","448.5","2","1","0","1","1","","",""
"","psychophysics","17","195317","0.0-2.0-2.4-0.4","0uk","[""L""]","","","","","","null","key","null","null","16.68700000000002","798","448.5","2","1","0","1","1","","",""
"","psychophysics","18","197579","0.0-2.0-0.5","0uk","[""L""]","","","","","","1558","key","z","z","16.68637313432848","798","448.5","2","1","1","1","0","false","",""
"","psychophysics","19","198587","0.0-2.0-1.5","0uk","[""L""]","","","","","","null","key","null","null","16.685766666666797","798","448.5","2","1","1","1","0","","",""
"","psychophysics","20","199596","0.0-2.0-3.5-0.5","0uk","[""L""]","","","","","","null","key","null","null","16.686305084745737","798","448.5","2","1","1","1","0","","",""
"","psychophysics","21","204267","0.0-2.0-0.6","0uk","[""L""]","","","","","","3964","key","z","z","16.68588530465958","798","448.5","2","0","0","0","0","false","",""
"","psychophysics","22","205275","0.0-2.0-1.6","0uk","[""L""]","","","","","","null","key","null","null","16.688183333333292","798","448.5","2","0","0","0","0","","",""
"","psychophysics","23","206283","0.0-2.0-3.6-0.6","0uk","[""L""]","","","","","","null","key","null","null","16.686932203389993","798","448.5","2","0","0","0","0","","",""
"","psychophysics","24","208947","0.0-2.0-0.7","0uk","[""L""]","","","","","","1960","key","m","m","16.686566037735968","798","448.5","2","0","1","1","1","true","",""
"","psychophysics","25","209954","0.0-2.0-1.7","0uk","[""L""]","","","","","","null","key","null","null","16.68476271186462","798","448.5","2","0","1","1","1","","",""
"","psychophysics","26","210965","0.0-2.0-2.7-0.7","0uk","[""L""]","","","","","","null","key","null","null","16.687149999999868","798","448.5","2","0","1","1","1","","",""
"","psychophysics","27","212891","0.0-2.0-0.8","0uk","[""L""]","","","","","","1221","key","m","m","16.6857631578947","798","448.5","1","0","1","1","0","false","",""
"","psychophysics","28","213901","0.0-2.0-1.8","0uk","[""L""]","","","","","","null","key","null","null","16.6874000000001","798","448.5","1","0","1","1","0","","",""
"","psychophysics","29","214910","0.0-2.0-3.8-0.8","0uk","[""L""]","","","","","","null","key","null","null","16.686067796610217","798","448.5","1","0","1","1","0","","",""
"","psychophysics","30","217435","0.0-2.0-0.9","0uk","[""L""]","","","","","","1822","key","m","m","16.685986666666576","798","448.5","1","1","0","0","1","false","",""
"","psychophysics","31","218443","0.0-2.0-1.9","0uk","[""L""]","","","","","","null","key","null","null","16.68700000000002","798","448.5","1","1","0","0","1","","",""
"","psychophysics","32","219452","0.0-2.0-3.9-0.9","0uk","[""L""]","","","","","","null","key","null","null","16.685305084745593","798","448.5","1","1","0","0","1","","",""
"","psychophysics","33","222131","0.0-2.0-0.10","0uk","[""L""]","","","","","","1971","key","z","z","16.686225000000015","798","448.5","2","0","1","0","0","false","",""
"","psychophysics","34","223138","0.0-2.0-1.10","0uk","[""L""]","","","","","","null","key","null","null","16.686203389830585","798","448.5","2","0","1","0","0","","",""
"","psychophysics","35","224147","0.0-2.0-3.10-0.10","0uk","[""L""]","","","","","","null","key","null","null","16.685833333333235","798","448.5","2","0","1","0","0","","",""
"","psychophysics","36","226002","0.0-2.0-0.11","0uk","[""L""]","","","","","","1151","key","m","m","16.68667272727259","798","448.5","2","0","0","1","1","true","",""
"","psychophysics","37","227009","0.0-2.0-1.11","0uk","[""L""]","","","","","","null","key","null","null","16.686322033898588","798","448.5","2","0","0","1","1","","",""
"","psychophysics","38","228019","0.0-2.0-2.11-0.11","0uk","[""L""]","","","","","","null","key","null","null","16.686566666666963","798","448.5","2","0","0","1","1","","",""
"","psychophysics","39","230211","0.0-2.0-0.12","0uk","[""L""]","","","","","","1488","key","m","m","16.685561538461478","798","448.5","2","1","0","1","0","true","",""
"","psychophysics","40","231221","0.0-2.0-1.12","0uk","[""L""]","","","","","","null","key","null","null","16.68716666666684","798","448.5","2","1","0","1","0","","",""
"","psychophysics","41","232230","0.0-2.0-2.12-0.12","0uk","[""L""]","","","","","","null","key","null","null","16.687322033898237","798","448.5","2","1","0","1","0","","",""
"","psychophysics","42","235266","0.0-2.0-0.13","0uk","[""L""]","","","","","","2333","key","z","z","16.68620441988939","798","448.5","2","1","1","0","1","false","",""
"","psychophysics","43","236277","0.0-2.0-1.13","0uk","[""L""]","","","","","","null","key","null","null","16.68703333333348","798","448.5","2","1","1","0","1","","",""
"","psychophysics","44","237285","0.0-2.0-3.13-0.13","0uk","[""L""]","","","","","","null","key","null","null","16.686389830508524","798","448.5","2","1","1","0","1","","",""
"","psychophysics","45","238802","0.0-2.0-0.14","0uk","[""L""]","","","","","","814","key","m","m","16.686822222222045","798","448.5","1","0","0","0","0","false","",""
"","psychophysics","46","239810","0.0-2.0-1.14","0uk","[""L""]","","","","","","null","key","null","null","16.687152542372658","798","448.5","1","0","0","0","0","","",""
"","psychophysics","47","240819","0.0-2.0-3.14-0.14","0uk","[""L""]","","","","","","null","key","null","null","16.686333333333216","798","448.5","1","0","0","0","0","","",""
"","psychophysics","48","242707","0.0-2.0-0.15","0uk","[""L""]","","","","","","1184","key","m","m","16.686276785714394","798","448.5","2","1","1","1","1","true","",""
"","psychophysics","49","243714","0.0-2.0-1.15","0uk","[""L""]","","","","","","null","key","null","null","16.687033898305145","798","448.5","2","1","1","1","1","","",""
"","psychophysics","50","244723","0.0-2.0-2.15-0.15","0uk","[""L""]","","","","","","null","key","null","null","16.686650000000373","798","448.5","2","1","1","1","1","","",""
"","psychophysics","51","245674","0.0-2.0-0.16","0uk","[""L""]","","","","","","248","key","m","m","16.687571428571182","798","448.5","2","1","1","1","0","true","",""
"","psychophysics","52","246682","0.0-2.0-1.16","0uk","[""L""]","","","","","","null","key","null","null","16.685491525423537","798","448.5","2","1","1","1","0","","",""
"","psychophysics","53","247692","0.0-2.0-2.16-0.16","0uk","[""L""]","","","","","","null","key","null","null","16.686599999999938","798","448.5","2","1","1","1","0","","",""
"","psychophysics","54","248930","0.0-2.0-0.17","0uk","[""L""]","","","","","","534","key","m","m","16.68660273972607","798","448.5","1","0","1","0","0","false","",""
"","psychophysics","55","249937","0.0-2.0-1.17","0uk","[""L""]","","","","","","null","key","null","null","16.68703389830465","798","448.5","1","0","1","0","0","","",""
"","psychophysics","56","250946","0.0-2.0-3.17-0.17","0uk","[""L""]","","","","","","null","key","null","null","16.687283333333713","798","448.5","1","0","1","0","0","","",""
"","psychophysics","57","252250","0.0-2.0-0.18","0uk","[""L""]","","","","","","600","key","m","m","16.685753246753436","798","448.5","1","1","1","1","0","false","",""
"","psychophysics","58","253258","0.0-2.0-1.18","0uk","[""L""]","","","","","","null","key","null","null","16.686898305084284","798","448.5","1","1","1","1","0","","",""
"","psychophysics","59","254267","0.0-2.0-3.18-0.18","0uk","[""L""]","","","","","","null","key","null","null","16.68563333333344","798","448.5","1","1","1","1","0","","",""
"","psychophysics","60","257243","0.0-2.0-0.19","0uk","[""L""]","","","","","","2272","key","z","z","16.686316384180806","798","448.5","2","1","1","1","0","false","",""
"","psychophysics","61","258252","0.0-2.0-1.19","0uk","[""L""]","","","","","","null","key","null","null","16.68626666666678","798","448.5","2","1","1","1","0","","",""
"","psychophysics","62","259261","0.0-2.0-3.19-0.19","0uk","[""L""]","","","","","","null","key","null","null","16.68513559322001","798","448.5","2","1","1","1","0","","",""
"","psychophysics","63","260658","0.0-2.0-0.20","0uk","[""L""]","","","","","","694","key","m","m","16.687373493975855","798","448.5","2","0","0","0","1","true","",""
"","psychophysics","64","261666","0.0-2.0-1.20","0uk","[""L""]","","","","","","null","key","null","null","16.686610169491683","798","448.5","2","0","0","0","1","","",""
"","psychophysics","65","262675","0.0-2.0-2.20-0.20","0uk","[""L""]","","","","","","null","key","null","null","16.6864333333336","798","448.5","2","0","0","0","1","","",""
"","psychophysics","66","264098","0.0-2.0-0.21","0uk","[""L""]","","","","","","719","key","m","m","16.68639285714224","798","448.5","2","1","0","0","1","true","",""
"","psychophysics","67","265105","0.0-2.0-1.21","0uk","[""L""]","","","","","","null","key","null","null","16.68696610169422","798","448.5","2","1","0","0","1","","",""
"","psychophysics","68","266114","0.0-2.0-2.21-0.21","0uk","[""L""]","","","","","","null","key","null","null","16.687266666666254","798","448.5","2","1","0","0","1","","",""
"","psychophysics","69","267581","0.0-2.0-0.22","0uk","[""L""]","","","","","","761","key","z","z","16.686563218391136","798","448.5","1","1","0","1","1","true","",""
"","psychophysics","70","268588","0.0-2.0-1.22","0uk","[""L""]","","","","","","null","key","null","null","16.685677966100986","798","448.5","1","1","0","1","1","","",""
"","psychophysics","71","269598","0.0-2.0-2.22-0.22","0uk","[""L""]","","","","","","null","key","null","null","16.687049999999967","798","448.5","1","1","0","1","1","","",""
"","psychophysics","72","271762","0.0-2.0-0.23","0uk","[""L""]","","","","","","1460","key","m","m","16.686234374999913","798","448.5","1","0","1","0","0","false","",""
"","psychophysics","73","272770","0.0-2.0-1.23","0uk","[""L""]","","","","","","null","key","null","null","16.68713333333338","798","448.5","1","0","1","0","0","","",""
"","psychophysics","74","273779","0.0-2.0-3.23-0.23","0uk","[""L""]","","","","","","null","key","null","null","16.686610169491683","798","448.5","1","0","1","0","0","","",""
"","psychophysics","75","274834","0.0-2.0-0.24","0uk","[""L""]","","","","","","352","key","z","z","16.6873064516131","798","448.5","2","1","0","1","1","false","",""
"","psychophysics","76","275843","0.0-2.0-1.24","0uk","[""L""]","","","","","","null","key","null","null","16.68675000000027","798","448.5","2","1","0","1","1","","",""
"","psychophysics","77","276851","0.0-2.0-3.24-0.24","0uk","[""L""]","","","","","","null","key","null","null","16.686593220338334","798","448.5","2","1","0","1","1","","",""
"","psychophysics","78","277955","0.0-2.0-0.25","0uk","[""L""]","","","","","","397","key","m","m","16.68690769230732","798","448.5","2","1","0","1","1","true","",""
"","psychophysics","79","278962","0.0-2.0-1.25","0uk","[""L""]","","","","","","null","key","null","null","16.68676666666676","798","448.5","2","1","0","1","1","","",""
"","psychophysics","80","279971","0.0-2.0-2.25-0.25","0uk","[""L""]","","","","","","null","key","null","null","16.685983050847426","798","448.5","2","1","0","1","1","","",""
"","psychophysics","81","281066","0.0-2.0-0.26","0uk","[""L""]","","","","","","388","key","m","m","16.684323076922624","798","448.5","1","0","1","1","1","false","",""
"","psychophysics","82","282073","0.0-2.0-1.26","0uk","[""L""]","","","","","","null","key","null","null","16.6857457627124","798","448.5","1","0","1","1","1","","",""
"","psychophysics","83","283083","0.0-2.0-3.26-0.26","0uk","[""L""]","","","","","","null","key","null","null","16.687149999999868","798","448.5","1","0","1","1","1","","",""
"","psychophysics","84","284099","0.0-2.0-0.27","0uk","[""L""]","","","","","","313","key","z","z","16.686566666666963","798","448.5","2","0","1","1","0","false","",""
"","psychophysics","85","285107","0.0-2.0-1.27","0uk","[""L""]","","","","","","null","key","null","null","16.68488135593213","798","448.5","2","0","1","1","0","","",""
"","psychophysics","86","286118","0.0-2.0-3.27-0.27","0uk","[""L""]","","","","","","null","key","null","null","16.686233333333316","798","448.5","2","0","1","1","0","","",""
"","psychophysics","87","287070","0.0-2.0-0.28","0uk","[""L""]","","","","","","248","key","m","m","16.6857678571427","798","448.5","1","1","1","1","1","false","",""
"","psychophysics","88","288077","0.0-2.0-1.28","0uk","[""L""]","","","","","","null","key","null","null","16.686305084745243","798","448.5","1","1","1","1","1","","",""
"","psychophysics","89","289088","0.0-2.0-3.28-0.28","0uk","[""L""]","","","","","","null","key","null","null","16.686516666666527","798","448.5","1","1","1","1","1","","",""
"","psychophysics","90","290410","0.0-2.0-0.29","0uk","[""L""]","","","","","","619","key","m","m","16.68597435897428","798","448.5","1","0","1","1","0","false","",""
"","psychophysics","91","291418","0.0-2.0-1.29","0uk","[""L""]","","","","","","null","key","null","null","16.685779661017122","798","448.5","1","0","1","1","0","","",""
"","psychophysics","92","292428","0.0-2.0-3.29-0.29","0uk","[""L""]","","","","","","null","key","null","null","16.686483333333552","798","448.5","1","0","1","1","0","","",""
"","psychophysics","93","293482","0.0-2.0-0.30","0uk","[""L""]","","","","","","352","key","z","z","16.685499999999827","798","448.5","2","1","1","0","1","false","",""
"","psychophysics","94","294490","0.0-2.0-1.30","0uk","[""L""]","","","","","","null","key","null","null","16.687101694915082","798","448.5","2","1","1","0","1","","",""
"","psychophysics","95","295499","0.0-2.0-3.30-0.30","0uk","[""L""]","","","","","","null","key","null","null","16.686183333332885","798","448.5","2","1","1","0","1","","",""
"","psychophysics","96","296229","0.0-2.0-0.31","0uk","[""L""]","","","","","","27","key","m","m","16.686906976744446","798","448.5","2","0","0","1","1","true","",""
"","psychophysics","97","297237","0.0-2.0-1.31","0uk","[""L""]","","","","","","null","key","null","null","16.68567796610197","798","448.5","2","0","0","1","1","","",""
"","psychophysics","98","298248","0.0-2.0-2.31-0.31","0uk","[""L""]","","","","","","null","key","null","null","16.68723333333328","798","448.5","2","0","0","1","1","","",""
"","psychophysics","99","299166","0.0-2.0-0.32","0uk","[""L""]","","","","","","215","key","z","z","16.685388888888863","798","448.5","1","0","0","1","0","true","",""
"","psychophysics","100","300174","0.0-2.0-1.32","0uk","[""L""]","","","","","","null","key","null","null","16.684966101694922","798","448.5","1","0","0","1","0","","",""
"","psychophysics","101","301185","0.0-2.0-2.32-0.32","0uk","[""L""]","","","","","","null","key","null","null","16.686249999999806","798","448.5","1","0","0","1","0","","",""
"","psychophysics","102","302546","0.0-2.0-0.33","0uk","[""L""]","","","","","","658","key","m","m","16.686000000000057","798","448.5","2","1","1","1","0","true","",""
"","psychophysics","103","303554","0.0-2.0-1.33","0uk","[""L""]","","","","","","null","key","null","null","16.68695000000007","798","448.5","2","1","1","1","0","","",""
"","psychophysics","104","304562","0.0-2.0-2.33-0.33","0uk","[""L""]","","","","","","null","key","null","null","16.687423728812895","798","448.5","2","1","1","1","0","","",""
"","psychophysics","105","305514","0.0-2.0-0.34","0uk","[""L""]","","","","","","248","key","m","m","16.68758928571437","798","448.5","2","1","1","1","0","true","",""
"","psychophysics","106","306524","0.0-2.0-1.34","0uk","[""L""]","","","","","","null","key","null","null","16.68675000000027","798","448.5","2","1","1","1","0","","",""
"","psychophysics","107","307533","0.0-2.0-2.34-0.34","0uk","[""L""]","","","","","","null","key","null","null","16.68561016949154","798","448.5","2","1","1","1","0","","",""
"","psychophysics","108","308354","0.0-2.0-0.35","0uk","[""L""]","","","","","","117","key","z","z","16.686333333332488","798","448.5","1","1","1","1","1","true","",""
"","psychophysics","109","309362","0.0-2.0-1.35","0uk","[""L""]","","","","","","null","key","null","null","16.685349999999744","798","448.5","1","1","1","1","1","","",""
"","psychophysics","110","310371","0.0-2.0-2.35-0.35","0uk","[""L""]","","","","","","null","key","null","null","16.68545762711832","798","448.5","1","1","1","1","1","","",""
"","psychophysics","111","311180","0.0-2.0-0.36","0uk","[""L""]","","","","","","106","key","z","z","16.68781250000029","798","448.5","2","1","0","1","1","false","",""
"","psychophysics","112","312188","0.0-2.0-1.36","0uk","[""L""]","","","","","","null","key","null","null","16.687389830508174","798","448.5","2","1","0","1","1","","",""
"","psychophysics","113","313198","0.0-2.0-3.36-0.36","0uk","[""L""]","","","","","","null","key","null","null","16.686249999999806","798","448.5","2","1","0","1","1","","",""
"","psychophysics","114","314362","0.0-2.0-0.37","0uk","[""L""]","","","","","","454","key","m","m","16.685897058823578","798","448.5","2","0","1","1","1","true","",""
"","psychophysics","115","315371","0.0-2.0-1.37","0uk","[""L""]","","","","","","null","key","null","null","16.685283333332823","798","448.5","2","0","1","1","1","","",""
"","psychophysics","116","316379","0.0-2.0-2.37-0.37","0uk","[""L""]","","","","","","null","key","null","null","16.68652542372889","798","448.5","2","0","1","1","1","","",""
"","psychophysics","117","317474","0.0-2.0-0.38","0uk","[""L""]","","","","","","392","key","z","z","16.686261538461817","798","448.5","2","0","0","0","0","false","",""
"","psychophysics","118","318481","0.0-2.0-1.38","0uk","[""L""]","","","","","","null","key","null","null","16.685271186440378","798","448.5","2","0","0","0","0","","",""
"","psychophysics","119","319490","0.0-2.0-3.38-0.38","0uk","[""L""]","","","","","","null","key","null","null","16.686716666667294","798","448.5","2","0","0","0","0","","",""
"","psychophysics","120","321802","0.0-2.0-0.39","0uk","[""L""]","","","","","","1609","key","m","m","16.685686131386955","798","448.5","2","1","1","1","1","true","",""
"","psychophysics","121","322810","0.0-2.0-1.39","0uk","[""L""]","","","","","","null","key","null","null","16.68666666666686","798","448.5","2","1","1","1","1","","",""
"","psychophysics","122","323818","0.0-2.0-2.39-0.39","0uk","[""L""]","","","","","","null","key","null","null","16.68567796610197","798","448.5","2","1","1","1","1","","",""
"","psychophysics","123","325074","0.0-2.0-0.40","0uk","[""L""]","","","","","","553","key","m","m","16.68693243243222","798","448.5","2","1","1","0","1","true","",""
"","psychophysics","124","326082","0.0-2.0-1.40","0uk","[""L""]","","","","","","null","key","null","null","16.686916666666125","798","448.5","2","1","1","0","1","","",""
"","psychophysics","125","327091","0.0-2.0-2.40-0.40","0uk","[""L""]","","","","","","null","key","null","null","16.686830508474348","798","448.5","2","1","1","0","1","","",""
"","psychophysics","126","328083","0.0-2.0-0.41","0uk","[""L""]","","","","","","288","key","z","z","16.686389830509018","798","448.5","2","1","1","0","0","false","",""
"","psychophysics","127","329090","0.0-2.0-1.41","0uk","[""L""]","","","","","","null","key","null","null","16.68606779660923","798","448.5","2","1","1","0","0","","",""
"","psychophysics","128","330101","0.0-2.0-3.41-0.41","0uk","[""L""]","","","","","","null","key","null","null","16.687183333332843","798","448.5","2","1","1","0","0","","",""
"","psychophysics","129","330819","0.0-2.0-0.42","0uk","[""L""]","","","","","","14","key","m","m","16.686166666665702","798","448.5","1","1","0","1","1","false","",""
"","psychophysics","130","331827","0.0-2.0-1.42","0uk","[""L""]","","","","","","null","key","null","null","16.686745762711556","798","448.5","1","1","0","1","1","","",""
"","psychophysics","131","332838","0.0-2.0-3.42-0.42","0uk","[""L""]","","","","","","null","key","null","null","16.686900000000605","798","448.5","1","1","0","1","1","","",""
"","psychophysics","132","333674","0.0-2.0-0.43","0uk","[""L""]","","","","","","132","key","z","z","16.68506122448919","798","448.5","2","0","0","0","1","false","",""
"","psychophysics","133","334681","0.0-2.0-1.43","0uk","[""L""]","","","","","","null","key","null","null","16.6844915254229","798","448.5","2","0","0","0","1","","",""
"","psychophysics","134","335691","0.0-2.0-3.43-0.43","0uk","[""L""]","","","","","","null","key","null","null","16.68743333333308","798","448.5","2","0","0","0","1","","",""
"","psychophysics","135","336893","0.0-2.0-0.44","0uk","[""L""]","","","","","","498","key","m","m","16.68612676056374","798","448.5","2","0","1","1","1","true","",""
"","psychophysics","136","337901","0.0-2.0-1.44","0uk","[""L""]","","","","","","null","key","null","null","16.68620338983108","798","448.5","2","0","1","1","1","","",""
"","psychophysics","137","338911","0.0-2.0-2.44-0.44","0uk","[""L""]","","","","","","null","key","null","null","16.687000000000506","798","448.5","2","0","1","1","1","","",""
"","psychophysics","138","340106","0.0-2.0-0.45","0uk","[""L""]","","","","","","490","key","m","m","16.68548571428567","798","448.5","1","1","1","1","1","false","",""
"","psychophysics","139","341114","0.0-2.0-1.45","0uk","[""L""]","","","","","","null","key","null","null","16.685616666666466","798","448.5","1","1","1","1","1","","",""
"","psychophysics","140","342122","0.0-2.0-3.45-0.45","0uk","[""L""]","","","","","","null","key","null","null","16.685016949152992","798","448.5","1","1","1","1","1","","",""
"","psychophysics","141","343468","0.0-2.0-0.46","0uk","[""L""]","","","","","","642","key","m","m","16.686837500000546","798","448.5","1","0","1","1","1","false","",""
"","psychophysics","142","344475","0.0-2.0-1.46","0uk","[""L""]","","","","","","null","key","null","null","16.68699999999993","798","448.5","1","0","1","1","1","","",""
"","psychophysics","143","345485","0.0-2.0-3.46-0.46","0uk","[""L""]","","","","","","null","key","null","null","16.68595000000011","798","448.5","1","0","1","1","1","","",""
"","psychophysics","144","349218","0.0-2.0-0.47","0uk","[""L""]","","","","","","3029","key","m","m","16.685846846846985","798","448.5","2","1","0","1","0","true","",""
"","psychophysics","145","350226","0.0-2.0-1.47","0uk","[""L""]","","","","","","null","key","null","null","16.68695000000007","798","448.5","2","1","0","1","0","","",""
"","psychophysics","146","351236","0.0-2.0-2.47-0.47","0uk","[""L""]","","","","","","null","key","null","null","16.685745762711413","798","448.5","2","1","0","1","0","","",""
"","psychophysics","147","353946","0.0-2.0-0.48","0uk","[""L""]","","","","","","2007","key","z","z","16.686320987654014","798","448.5","2","1","1","1","1","false","",""
"","psychophysics","148","354954","0.0-2.0-1.48","0uk","[""L""]","","","","","","null","key","null","null","16.686661016949753","798","448.5","2","1","1","1","1","","",""
"","psychophysics","149","355964","0.0-2.0-3.48-0.48","0uk","[""L""]","","","","","","null","key","null","null","16.686900000000605","798","448.5","2","1","1","1","1","","",""
"","psychophysics","150","357734","0.0-2.0-0.49","0uk","[""L""]","","","","","","1066","key","z","z","16.685638095238357","798","448.5","1","0","0","1","1","true","",""
"","psychophysics","151","358741","0.0-2.0-1.49","0uk","[""L""]","","","","","","null","key","null","null","16.68650847457653","798","448.5","1","0","0","1","1","","",""
"","psychophysics","152","359752","0.0-2.0-2.49-0.49","0uk","[""L""]","","","","","","null","key","null","null","16.686500000000038","798","448.5","1","0","0","1","1","","",""
"","psychophysics","153","360930","0.0-2.0-0.50","0uk","[""L""]","","","","","","474","key","m","m","16.68618840579723","798","448.5","2","0","0","1","0","true","",""
"","psychophysics","154","361938","0.0-2.0-1.50","0uk","[""L""]","","","","","","null","key","null","null","16.686566666666963","798","448.5","2","0","0","1","0","","",""
"","psychophysics","155","362946","0.0-2.0-2.50-0.50","0uk","[""L""]","","","","","","null","key","null","null","16.68649152542417","798","448.5","2","0","0","1","0","","",""
"","psychophysics","156","364141","0.0-2.0-0.51","0uk","[""L""]","","","","","","491","key","z","z","16.686492957746196","798","448.5","1","1","1","1","1","true","",""
"","psychophysics","157","365149","0.0-2.0-1.51","0uk","[""L""]","","","","","","null","key","null","null","16.68569491525433","798","448.5","1","1","1","1","1","","",""
"","psychophysics","158","366159","0.0-2.0-2.51-0.51","0uk","[""L""]","","","","","","null","key","null","null","16.686533333333013","798","448.5","1","1","1","1","1","","",""
"","psychophysics","159","367034","0.0-2.0-0.52","0uk","[""L""]","","","","","","171","key","m","m","16.685333333334285","798","448.5","2","1","1","1","0","true","",""
"","psychophysics","160","368045","0.0-2.0-1.52","0uk","[""L""]","","","","","","null","key","null","null","16.685966666666598","798","448.5","2","1","1","1","0","","",""
"","psychophysics","161","369054","0.0-2.0-2.52-0.52","0uk","[""L""]","","","","","","null","key","null","null","16.685305084746087","798","448.5","2","1","1","1","0","","",""
"","psychophysics","162","369842","0.0-2.0-0.53","0uk","[""L""]","","","","","","85","key","m","m","16.687673913044147","798","448.5","1","1","0","0","1","false","",""
"","psychophysics","163","370849","0.0-2.0-1.53","0uk","[""L""]","","","","","","null","key","null","null","16.68731666666669","798","448.5","1","1","0","0","1","","",""
"","psychophysics","164","371858","0.0-2.0-3.53-0.53","0uk","[""L""]","","","","","","null","key","null","null","16.685271186440378","798","448.5","1","1","0","0","1","","",""
"","psychophysics","165","373290","0.0-2.0-0.54","0uk","[""L""]","","","","","","729","key","z","z","16.686600000000393","798","448.5","1","1","1","1","1","true","",""
"","psychophysics","166","374298","0.0-2.0-1.54","0uk","[""L""]","","","","","","null","key","null","null","16.686559322033613","798","448.5","1","1","1","1","1","","",""
"","psychophysics","167","375307","0.0-2.0-2.54-0.54","0uk","[""L""]","","","","","","null","key","null","null","16.68509999999951","798","448.5","1","1","1","1","1","","",""
"","psychophysics","168","377524","0.0-2.0-0.55","0uk","[""L""]","","","","","","1513","key","z","z","16.685590909091072","798","448.5","2","0","0","1","0","false","",""
"","psychophysics","169","378531","0.0-2.0-1.55","0uk","[""L""]","","","","","","null","key","null","null","16.68484745762741","798","448.5","2","0","0","1","0","","",""
"","psychophysics","170","379542","0.0-2.0-3.55-0.55","0uk","[""L""]","","","","","","null","key","null","null","16.687249999999768","798","448.5","2","0","0","1","0","","",""
"","psychophysics","171","380594","0.0-2.0-0.56","0uk","[""L""]","","","","","","348","key","m","m","16.68532258064595","798","448.5","1","1","0","1","1","false","",""
"","psychophysics","172","381601","0.0-2.0-1.56","0uk","[""L""]","","","","","","null","key","null","null","16.68566101694961","798","448.5","1","1","0","1","1","","",""
"","psychophysics","173","382612","0.0-2.0-3.56-0.56","0uk","[""L""]","","","","","","null","key","null","null","16.685533333334025","798","448.5","1","1","0","1","1","","",""
"","psychophysics","174","383682","0.0-2.0-0.57","0uk","[""L""]","","","","","","367","key","z","z","16.685825396825315","798","448.5","2","0","0","1","1","false","",""
"","psychophysics","175","384690","0.0-2.0-1.57","0uk","[""L""]","","","","","","null","key","null","null","16.6862372881358","798","448.5","2","0","0","1","1","","",""
"","psychophysics","176","385699","0.0-2.0-3.57-0.57","0uk","[""L""]","","","","","","null","key","null","null","16.687200000000303","798","448.5","2","0","0","1","1","","",""
"","psychophysics","177","386634","0.0-2.0-0.58","0uk","[""L""]","","","","","","231","key","m","m","16.686581818182656","798","448.5","2","0","1","1","0","true","",""
"","psychophysics","178","387641","0.0-2.0-1.58","0uk","[""L""]","","","","","","null","key","null","null","16.686305084745243","798","448.5","2","0","1","1","0","","",""
"","psychophysics","179","388652","0.0-2.0-2.58-0.58","0uk","[""L""]","","","","","","null","key","null","null","16.687383333332644","798","448.5","2","0","1","1","0","","",""
"","psychophysics","180","389498","0.0-2.0-0.59","0uk","[""L""]","","","","","","143","key","m","m","16.68522448979594","798","448.5","1","1","0","1","1","false","",""
"","psychophysics","181","390507","0.0-2.0-1.59","0uk","[""L""]","","","","","","null","key","null","null","16.68678333333325","798","448.5","1","1","0","1","1","","",""
"","psychophysics","182","391515","0.0-2.0-3.59-0.59","0uk","[""L""]","","","","","","null","key","null","null","16.685118644068144","798","448.5","1","1","0","1","1","","",""
"","psychophysics","183","392410","0.0-2.0-0.60","0uk","[""L""]","","","","","","192","key","z","z","16.687415094339983","798","448.5","2","1","1","1","1","false","",""
"","psychophysics","184","393417","0.0-2.0-1.60","0uk","[""L""]","","","","","","null","key","null","null","16.686288135592882","798","448.5","2","1","1","1","1","","",""
"","psychophysics","185","394427","0.0-2.0-3.60-0.60","0uk","[""L""]","","","","","","null","key","null","null","16.68666666666589","798","448.5","2","1","1","1","1","","",""
"","psychophysics","186","395244","0.0-2.0-0.61","0uk","[""L""]","","","","","","113","key","m","m","16.685916666666646","798","448.5","2","0","1","1","1","true","",""
"","psychophysics","187","396251","0.0-2.0-1.61","0uk","[""L""]","","","","","","null","key","null","null","16.68603389830451","798","448.5","2","0","1","1","1","","",""
"","psychophysics","188","397262","0.0-2.0-2.61-0.61","0uk","[""L""]","","","","","","null","key","null","null","16.686249999999806","798","448.5","2","0","1","1","1","","",""
"","psychophysics","189","398364","0.0-2.0-0.62","0uk","[""L""]","","","","","","397","key","z","z","16.68498461538424","798","448.5","2","1","1","1","1","false","",""
"","psychophysics","190","399371","0.0-2.0-1.62","0uk","[""L""]","","","","","","null","key","null","null","16.686135593220648","798","448.5","2","1","1","1","1","","",""
"","psychophysics","191","400383","0.0-2.0-3.62-0.62","0uk","[""L""]","","","","","","null","key","null","null","16.687633333333846","798","448.5","2","1","1","1","1","","",""
"","psychophysics","192","401538","0.0-2.0-0.63","0uk","[""L""]","","","","","","452","key","m","m","16.686014705882855","798","448.5","2","1","0","0","1","true","",""
"","psychophysics","193","402545","0.0-2.0-1.63","0uk","[""L""]","","","","","","null","key","null","null","16.686372881356657","798","448.5","2","1","0","0","1","","",""
"","psychophysics","194","403554","0.0-2.0-2.63-0.63","0uk","[""L""]","","","","","","null","key","null","null","16.68693333333358","798","448.5","2","1","0","0","1","","",""
"","psychophysics","195","404730","0.0-2.0-0.64","0uk","[""L""]","","","","","","473","key","m","m","16.685681159419946","798","448.5","2","1","1","1","1","true","",""
"","psychophysics","196","405738","0.0-2.0-1.64","0uk","[""L""]","","","","","","null","key","null","null","16.686350000000676","798","448.5","2","1","1","1","1","","",""
"","psychophysics","197","406748","0.0-2.0-2.64-0.64","0uk","[""L""]","","","","","","null","key","null","null","16.685830508474204","798","448.5","2","1","1","1","1","","",""
"","psychophysics","198","407971","0.0-2.0-0.65","0uk","[""L""]","","","","","","519","key","m","m","16.686999999999696","798","448.5","2","1","1","0","1","true","",""
"","psychophysics","199","408978","0.0-2.0-1.65","0uk","[""L""]","","","","","","null","key","null","null","16.690566666666808","798","448.5","2","1","1","0","1","","",""
"","psychophysics","200","409987","0.0-2.0-2.65-0.65","0uk","[""L""]","","","","","","null","key","null","null","16.686305084746227","798","448.5","2","1","1","0","1","","",""
"","psychophysics","201","410922","0.0-2.0-0.66","0uk","[""L""]","","","","","","232","key","z","z","16.687109090909573","798","448.5","2","1","0","1","1","false","",""
"","psychophysics","202","411930","0.0-2.0-1.66","0uk","[""L""]","","","","","","null","key","null","null","16.686916666666125","798","448.5","2","1","0","1","1","","",""
"","psychophysics","203","412939","0.0-2.0-3.66-0.66","0uk","[""L""]","","","","","","null","key","null","null","16.6857457627124","798","448.5","2","1","0","1","1","","",""
"","psychophysics","204","413874","0.0-2.0-0.67","0uk","[""L""]","","","","","","232","key","m","m","16.686563636363612","798","448.5","1","0","1","0","0","false","",""
"","psychophysics","205","414882","0.0-2.0-1.67","0uk","[""L""]","","","","","","null","key","null","null","16.687016666666022","798","448.5","1","0","1","0","0","","",""
"","psychophysics","206","415891","0.0-2.0-3.67-0.67","0uk","[""L""]","","","","","","null","key","null","null","16.685728813559052","798","448.5","1","0","1","0","0","","",""
"","psychophysics","207","416746","0.0-2.0-0.68","0uk","[""L""]","","","","","","152","key","z","z","16.687360000000336","798","448.5","1","0","0","1","1","true","",""
"","psychophysics","208","417755","0.0-2.0-1.68","0uk","[""L""]","","","","","","null","key","null","null","16.687049999999967","798","448.5","1","0","0","1","1","","",""
"","psychophysics","209","418763","0.0-2.0-2.68-0.68","0uk","[""L""]","","","","","","null","key","null","null","16.685186440678574","798","448.5","1","0","0","1","1","","",""
"","psychophysics","210","419555","0.0-2.0-0.69","0uk","[""L""]","","","","","","89","key","z","z","16.686936170213233","798","448.5","1","1","1","0","1","true","",""
"","psychophysics","211","420563","0.0-2.0-1.69","0uk","[""L""]","","","","","","null","key","null","null","16.68684745762671","798","448.5","1","1","1","0","1","","",""
"","psychophysics","212","421573","0.0-2.0-2.69-0.69","0uk","[""L""]","","","","","","null","key","null","null","16.687016666666022","798","448.5","1","1","1","0","1","","",""
"","psychophysics","213","422682","0.0-2.0-0.70","0uk","[""L""]","","","","","","405","key","z","z","16.686338461538814","798","448.5","2","1","0","1","1","false","",""
"","psychophysics","214","423693","0.0-2.0-1.70","0uk","[""L""]","","","","","","null","key","null","null","16.686900000000605","798","448.5","2","1","0","1","1","","",""
"","psychophysics","215","424701","0.0-2.0-3.70-0.70","0uk","[""L""]","","","","","","null","key","null","null","16.686288135593866","798","448.5","2","1","0","1","1","","",""
"","psychophysics","216","425970","0.0-2.0-0.71","0uk","[""L""]","","","","","","565","key","m","m","16.68721333333291","798","448.5","2","1","1","1","1","true","",""
"","psychophysics","217","426980","0.0-2.0-1.71","0uk","[""L""]","","","","","","null","key","null","null","16.687266666666254","798","448.5","2","1","1","1","1","","",""
"","psychophysics","218","427989","0.0-2.0-2.71-0.71","0uk","[""L""]","","","","","","null","key","null","null","16.685999999999787","798","448.5","2","1","1","1","1","","",""
"","psychophysics","219","430209","0.0-2.0-0.72","0uk","[""L""]","","","","","","1518","key","m","m","16.686000000000192","798","448.5","2","1","0","1","0","true","",""
"","psychophysics","220","431217","0.0-2.0-1.72","0uk","[""L""]","","","","","","null","key","null","null","16.68669999999984","798","448.5","2","1","0","1","0","","",""
"","psychophysics","221","432226","0.0-2.0-2.72-0.72","0uk","[""L""]","","","","","","null","key","null","null","16.685101694914795","798","448.5","2","1","0","1","0","","",""
"","psychophysics","222","433889","0.0-2.0-0.73","0uk","[""L""]","","","","","","960","key","m","m","16.686606060606522","798","448.5","1","0","1","1","1","false","",""
"","psychophysics","223","434896","0.0-2.0-1.73","0uk","[""L""]","","","","","","null","key","null","null","16.687610169491826","798","448.5","1","0","1","1","1","","",""
"","psychophysics","224","435906","0.0-2.0-3.73-0.73","0uk","[""L""]","","","","","","null","key","null","null","16.68686666666666","798","448.5","1","0","1","1","1","","",""
"","psychophysics","225","437953","0.0-2.0-0.74","0uk","[""L""]","","","","","","1344","key","z","z","16.68595867768586","798","448.5","1","0","0","1","0","true","",""
"","psychophysics","226","438961","0.0-2.0-1.74","0uk","[""L""]","","","","","","null","key","null","null","16.68685000000017","798","448.5","1","0","0","1","0","","",""
"","psychophysics","227","439970","0.0-2.0-2.74-0.74","0uk","[""L""]","","","","","","null","key","null","null","16.685288135593726","798","448.5","1","0","0","1","0","","",""
"","psychophysics","228","442569","0.0-2.0-0.75","0uk","[""L""]","","","","","","1896","key","m","m","16.686174193548503","798","448.5","1","1","0","1","0","false","",""
"","psychophysics","229","443578","0.0-2.0-1.75","0uk","[""L""]","","","","","","null","key","null","null","16.68701694915229","798","448.5","1","1","0","1","0","","",""
"","psychophysics","230","444586","0.0-2.0-3.75-0.75","0uk","[""L""]","","","","","","null","key","null","null","16.685233333333358","798","448.5","1","1","0","1","0","","",""
"","psychophysics","231","445993","0.0-2.0-0.76","0uk","[""L""]","","","","","","704","key","z","z","16.68560240963819","798","448.5","1","0","1","0","1","true","",""
"","psychophysics","232","447002","0.0-2.0-1.76","0uk","[""L""]","","","","","","null","key","null","null","16.686100000000444","798","448.5","1","0","1","0","1","","",""
"","psychophysics","233","448012","0.0-2.0-2.76-0.76","0uk","[""L""]","","","","","","null","key","null","null","16.685152542372865","798","448.5","1","0","1","0","1","","",""
"","psychophysics","234","448897","0.0-2.0-0.77","0uk","[""L""]","","","","","","181","key","z","z","16.686749999999076","798","448.5","1","0","1","1","0","true","",""
"","psychophysics","235","449907","0.0-2.0-1.77","0uk","[""L""]","","","","","","null","key","null","null","16.685716666666362","798","448.5","1","0","1","1","0","","",""
"","psychophysics","236","450915","0.0-2.0-2.77-0.77","0uk","[""L""]","","","","","","null","key","null","null","16.68618644067773","798","448.5","1","0","1","1","0","","",""
"","psychophysics","237","451969","0.0-2.0-0.78","0uk","[""L""]","","","","","","351","key","z","z","16.686870967742102","798","448.5","2","0","1","1","1","false","",""
"","psychophysics","238","452976","0.0-2.0-1.78","0uk","[""L""]","","","","","","null","key","null","null","16.687083333333916","798","448.5","2","0","1","1","1","","",""
"","psychophysics","239","453985","0.0-2.0-3.78-0.78","0uk","[""L""]","","","","","","null","key","null","null","16.68633898305095","798","448.5","2","0","1","1","1","","",""
"","psychophysics","240","455129","0.0-2.0-0.79","0uk","[""L""]","","","","","","441","key","m","m","16.686955882352777","798","448.5","1","0","1","1","0","false","",""
"","psychophysics","241","456136","0.0-2.0-1.79","0uk","[""L""]","","","","","","null","key","null","null","16.68610169491494","798","448.5","1","0","1","1","0","","",""
"","psychophysics","242","457147","0.0-2.0-3.79-0.79","0uk","[""L""]","","","","","","null","key","null","null","16.687100000000402","798","448.5","1","0","1","1","0","","",""
"","psychophysics","243","457977","0.0-2.0-0.80","0uk","[""L""]","","","","","","127","key","z","z","16.68514583333308","798","448.5","1","1","0","1","1","true","",""
"","psychophysics","244","458985","0.0-2.0-1.80","0uk","[""L""]","","","","","","null","key","null","null","16.68631666666673","798","448.5","1","1","0","1","1","","",""
"","psychophysics","245","459994","0.0-2.0-2.80-0.80","0uk","[""L""]","","","","","","null","key","null","null","16.686406779660395","798","448.5","1","1","0","1","1","","",""
"","psychophysics","246","460889","0.0-2.0-0.81","0uk","[""L""]","","","","","","188","key","z","z","16.687584905660017","798","448.5","1","1","1","1","1","true","",""
"","psychophysics","247","461896","0.0-2.0-1.81","0uk","[""L""]","","","","","","null","key","null","null","16.686389830508034","798","448.5","1","1","1","1","1","","",""
"","psychophysics","248","462906","0.0-2.0-2.81-0.81","0uk","[""L""]","","","","","","null","key","null","null","16.686716666666324","798","448.5","1","1","1","1","1","","",""
"","psychophysics","249","463761","0.0-2.0-0.82","0uk","[""L""]","","","","","","152","key","z","z","16.686500000000233","798","448.5","2","0","0","1","1","false","",""
"","psychophysics","250","464769","0.0-2.0-1.82","0uk","[""L""]","","","","","","null","key","null","null","16.68706779661036","798","448.5","2","0","0","1","1","","",""
"","psychophysics","251","465777","0.0-2.0-3.82-0.82","0uk","[""L""]","","","","","","null","key","null","null","16.686500000000038","798","448.5","2","0","0","1","1","","",""
"","psychophysics","252","466681","0.0-2.0-0.83","0uk","[""L""]","","","","","","200","key","m","m","16.68558490566057","798","448.5","2","1","1","0","1","true","",""
"","psychophysics","253","467689","0.0-2.0-1.83","0uk","[""L""]","","","","","","null","key","null","null","16.6864406779661","798","448.5","2","1","1","0","1","","",""
"","psychophysics","254","468697","0.0-2.0-2.83-0.83","0uk","[""L""]","","","","","","null","key","null","null","16.685883333334157","798","448.5","2","1","1","0","1","","",""
"","psychophysics","255","469657","0.0-2.0-0.84","0uk","[""L""]","","","","","","257","key","m","m","16.687125000000897","798","448.5","1","1","1","1","1","false","",""
"","psychophysics","256","470665","0.0-2.0-1.84","0uk","[""L""]","","","","","","null","key","null","null","16.686516666666527","798","448.5","1","1","1","1","1","","",""
"","psychophysics","257","471674","0.0-2.0-3.84-0.84","0uk","[""L""]","","","","","","null","key","null","null","16.68569491525433","798","448.5","1","1","1","1","1","","",""
"","psychophysics","258","472433","0.0-2.0-0.85","0uk","[""L""]","","","","","","52","key","z","z","16.687911111111234","798","448.5","2","0","0","1","1","false","",""
"","psychophysics","259","473440","0.0-2.0-1.85","0uk","[""L""]","","","","","","null","key","null","null","16.684355932204014","798","448.5","2","0","0","1","1","","",""
"","psychophysics","260","474450","0.0-2.0-3.85-0.85","0uk","[""L""]","","","","","","null","key","null","null","16.687450000000535","798","448.5","2","0","0","1","1","","",""
"","psychophysics","261","475161","0.0-2.0-0.86","0uk","[""L""]","","","","","","8","key","m","m","16.68541463414667","798","448.5","2","0","0","0","0","true","",""
"","psychophysics","262","476179","0.0-2.0-1.86","0uk","[""L""]","","","","","","null","key","null","null","16.686566666666963","798","448.5","2","0","0","0","0","","",""
"","psychophysics","263","477189","0.0-2.0-2.86-0.86","0uk","[""L""]","","","","","","null","key","null","null","16.68705000000094","798","448.5","2","0","0","0","0","","",""
"","psychophysics","264","479145","0.0-2.0-0.87","0uk","[""L""]","","","","","","1252","key","z","z","16.685775862068866","798","448.5","1","0","1","1","1","true","",""
"","psychophysics","265","480157","0.0-2.0-1.87","0uk","[""L""]","","","","","","null","key","null","null","16.687266666666254","798","448.5","1","0","1","1","1","","",""
"","psychophysics","266","481165","0.0-2.0-2.87-0.87","0uk","[""L""]","","","","","","null","key","null","null","16.68640677966138","798","448.5","1","0","1","1","1","","",""
"","psychophysics","267","481993","0.0-2.0-0.88","0uk","[""L""]","","","","","","124","key","z","z","16.686632653060418","798","448.5","1","0","1","1","0","true","",""
"","psychophysics","268","483000","0.0-2.0-1.88","0uk","[""L""]","","","","","","null","key","null","null","16.6861186440673","798","448.5","1","0","1","1","0","","",""
"","psychophysics","269","484011","0.0-2.0-2.88-0.88","0uk","[""L""]","","","","","","null","key","null","null","16.68595000000011","798","448.5","1","0","1","1","0","","",""
"","psychophysics","270","485180","0.0-2.0-0.89","0uk","[""L""]","","","","","","466","key","z","z","16.685840579710625","798","448.5","1","1","0","1","1","true","",""
"","psychophysics","271","486186","0.0-2.0-1.89","0uk","[""L""]","","","","","","null","key","null","null","16.687169491524525","798","448.5","1","1","0","1","1","","",""
"","psychophysics","272","487198","0.0-2.0-2.89-0.89","0uk","[""L""]","","","","","","null","key","null","null","16.687266666666254","798","448.5","1","1","0","1","1","","",""
"","html-keyboard-response","273","497641","0.0-2.0-4.89-0.89","0uk","[""L""]","","","","","","10447","","","g","","","","","","","","","","<p>You have finished block 1 of 5.<p>You correctly predicted 52% of the races.<p>On the next screen, you will be given a 30 second break. Press the <b>g</b> key to start your break.",""
"","html-keyboard-response","274","498651","0.0-2.0-4.89-1.89-0.89","0uk","[""L""]","","","","","","null","","","null","","","","","","","","","","<p>The experiment will resume in 30 seconds. ",""
"","html-keyboard-response","275","499667","0.0-2.0-4.89-1.89-1.89","0uk","[""L""]","","","","","","null","","","null","","","","","","","","","","<p>The experiment will resume in 29 seconds. ",""
"","html-keyboard-response","276","500677","0.0-2.0-4.89-1.89-2.89","0uk","[""L""]","","","","","","null","","","null","","","","","","","","","","<p>The experiment will resume in 28 seconds. ",""
"","html-keyboard-response","277","501686","0.0-2.0-4.89-1.89-3.89","0uk","[""L""]","","","","","","null","","","null","","","","","","","","","","<p>The experiment will resume in 27 seconds. ",""
"","html-keyboard-response","278","502689","0.0-2.0-4.89-1.89-4.89","0uk","[""L""]","","","","","","null","","","null","","","","","","","","","","<p>The experiment will resume in 26 seconds. ",""
"","html-keyboard-response","279","503706","0.0-2.0-4.89-1.89-5.89","0uk","[""L""]","","","","","","null","","","null","","","","","","","","","","<p>The experiment will resume in 25 seconds. ",""
"","html-keyboard-response","280","504708","0.0-2.0-4.89-1.89-6.89","0uk","[""L""]","","","","","","null","","","null","","","","","","","","","","<p>The experiment will resume in 24 seconds. ",""
"","html-keyboard-response","281","505725","0.0-2.0-4.89-1.89-7.89","0uk","[""L""]","","","","","","null","","","null","","","","","","","","","","<p>The experiment will resume in 23 seconds. ",""
"","html-keyboard-response","282","506727","0.0-2.0-4.89-1.89-8.89","0uk","[""L""]","","","","","","null","","","null","","","","","","","","","","<p>The experiment will resume in 22 seconds. ",""
"","html-keyboard-response","283","507744","0.0-2.0-4.89-1.89-9.89","0uk","[""L""]","","","","","","null","","","null","","","","","","","","","","<p>The experiment will resume in 21 seconds. ",""
"","html-keyboard-response","284","508747","0.0-2.0-4.89-1.89-10.89","0uk","[""L""]","","","","","","null","","","null","","","","","","","","","","<p>The experiment will resume in 20 seconds. ",""
"","html-keyboard-response","285","509762","0.0-2.0-4.89-1.89-11.89","0uk","[""L""]","","","","","","null","","","null","","","","","","","","","","<p>The experiment will resume in 19 seconds. ",""
"","html-keyboard-response","286","510765","0.0-2.0-4.89-1.89-12.89","0uk","[""L""]","","","","","","null","","","null","","","","","","","","","","<p>The experiment will resume in 18 seconds. ",""
"","html-keyboard-response","287","511781","0.0-2.0-4.89-1.89-13.89","0uk","[""L""]","","","","","","null","","","null","","","","","","","","","","<p>The experiment will resume in 17 seconds. ",""
"","html-keyboard-response","288","512796","0.0-2.0-4.89-1.89-14.89","0uk","[""L""]","","","","","","null","","","null","","","","","","","","","","<p>The experiment will resume in 16 seconds. ",""
"","html-keyboard-response","289","513812","0.0-2.0-4.89-1.89-15.89","0uk","[""L""]","","","","","","null","","","null","","","","","","","","","","<p>The experiment will resume in 15 seconds. ",""
"","html-keyboard-response","290","514820","0.0-2.0-4.89-1.89-16.89","0uk","[""L""]","","","","","","null","","","null","","","","","","","","","","<p>The experiment will resume in 14 seconds. ",""
"","html-keyboard-response","291","515821","0.0-2.0-4.89-1.89-17.89","0uk","[""L""]","","","","","","null","","","null","","","","","","","","","","<p>The experiment will resume in 13 seconds. ",""
"","html-keyboard-response","292","516822","0.0-2.0-4.89-1.89-18.89","0uk","[""L""]","","","","","","null","","","null","","","","","","","","","","<p>The experiment will resume in 12 seconds. ",""
"","html-keyboard-response","293","517824","0.0-2.0-4.89-1.89-19.89","0uk","[""L""]","","","","","","null","","","null","","","","","","","","","","<p>The experiment will resume in 11 seconds. ",""
"","html-keyboard-response","294","518840","0.0-2.0-4.89-1.89-20.89","0uk","[""L""]","","","","","","null","","","null","","","","","","","","","","<p>The experiment will resume in 10 seconds. ",""
"","html-keyboard-response","295","519841","0.0-2.0-4.89-1.89-21.89","0uk","[""L""]","","","","","","null","","","null","","","","","","","","","","<p>The experiment will resume in 9 seconds. ",""
"","html-keyboard-response","296","520858","0.0-2.0-4.89-1.89-22.89","0uk","[""L""]","","","","","","null","","","null","","","","","","","","","","<p>The experiment will resume in 8 seconds. ",""
"","html-keyboard-response","297","521861","0.0-2.0-4.89-1.89-23.89","0uk","[""L""]","","","","","","null","","","null","","","","","","","","","","<p>The experiment will resume in 7 seconds. ",""
"","html-keyboard-response","298","522878","0.0-2.0-4.89-1.89-24.89","0uk","[""L""]","","","","","","null","","","null","","","","","","","","","","<p>The experiment will resume in 6 seconds. ",""
"","html-keyboard-response","299","523880","0.0-2.0-4.89-1.89-25.89","0uk","[""L""]","","","","","","null","","","null","","","","","","","","","","<p>The experiment will resume in 5 seconds. ",""
"","html-keyboard-response","300","524897","0.0-2.0-4.89-1.89-26.89","0uk","[""L""]","","","","","","null","","","null","","","","","","","","","","<p>The experiment will resume in 4 seconds. ",""
"","html-keyboard-response","301","525899","0.0-2.0-4.89-1.89-27.89","0uk","[""L""]","","","","","","null","","","null","","","","","","","","","","<p>The experiment will resume in 3 seconds. ",""
"","html-keyboard-response","302","526914","0.0-2.0-4.89-1.89-28.89","0uk","[""L""]","","","","","","null","","","null","","","","","","","","","","<p>The experiment will resume in 2 seconds. ",""
"","html-keyboard-response","303","527918","0.0-2.0-4.89-1.89-29.89","0uk","[""L""]","","","","","","null","","","null","","","","","","","","","","<p>The experiment will resume in 1 seconds. ",""
"","psychophysics","304","531016","0.0-2.0-0.90","0uk","[""L""]","","","","","","2394","key","z","z","16.688297297297098","798","448.5","2","1","1","1","1","false","",""
"","psychophysics","305","532024","0.0-2.0-1.90","0uk","[""L""]","","","","","","null","key","null","null","16.686916666666125","798","448.5","2","1","1","1","1","","",""
"","psychophysics","306","533033","0.0-2.0-3.90-0.90","0uk","[""L""]","","","","","","null","key","null","null","16.68584745762854","798","448.5","2","1","1","1","1","","",""
"","psychophysics","307","533736","0.0-2.0-0.91","0uk","[""L""]","","","","","","0","key","m","m","16.68709756097495","798","448.5","1","0","1","1","1","false","",""
"","psychophysics","308","534743","0.0-2.0-1.91","0uk","[""L""]","","","","","","null","key","null","null","16.685783333333287","798","448.5","1","0","1","1","1","","",""
"","psychophysics","309","535752","0.0-2.0-3.91-0.91","0uk","[""L""]","","","","","","null","key","null","null","16.68584745762854","798","448.5","1","0","1","1","1","","",""
"","psychophysics","310","536816","0.0-2.0-0.92","0uk","[""L""]","","","","","","361","key","z","z","16.686936507936537","798","448.5","2","0","1","0","1","false","",""
"","psychophysics","311","537822","0.0-2.0-1.92","0uk","[""L""]","","","","","","null","key","null","null","16.685949152542705","798","448.5","2","0","1","0","1","","",""
"","psychophysics","312","538831","0.0-2.0-3.92-0.92","0uk","[""L""]","","","","","","null","key","null","null","16.68686666666763","798","448.5","2","0","1","0","1","","",""
"","psychophysics","313","539752","0.0-2.0-0.93","0uk","[""L""]","","","","","","216","key","m","m","16.686314814814573","798","448.5","2","1","1","1","1","true","",""
"","psychophysics","314","540758","0.0-2.0-1.93","0uk","[""L""]","","","","","","null","key","null","null","16.685237288135657","798","448.5","2","1","1","1","1","","",""
"","psychophysics","315","541768","0.0-2.0-2.93-0.93","0uk","[""L""]","","","","","","null","key","null","null","16.68628333333375","798","448.5","2","1","1","1","1","","",""
"","psychophysics","316","542856","0.0-2.0-0.94","0uk","[""L""]","","","","","","384","key","z","z","16.685953125001106","798","448.5","2","0","1","0","1","false","",""
"","psychophysics","317","543863","0.0-2.0-1.94","0uk","[""L""]","","","","","","null","key","null","null","16.68494915254059","798","448.5","2","0","1","0","1","","",""
"","psychophysics","318","544873","0.0-2.0-3.94-0.94","0uk","[""L""]","","","","","","null","key","null","null","16.685883333334157","798","448.5","2","0","1","0","1","","",""
"","psychophysics","319","545928","0.0-2.0-0.95","0uk","[""L""]","","","","","","351","key","m","m","16.685887096772692","798","448.5","2","1","0","1","0","true","",""
"","psychophysics","320","546935","0.0-2.0-1.95","0uk","[""L""]","","","","","","null","key","null","null","16.685762711863774","798","448.5","2","1","0","1","0","","",""
"","psychophysics","321","547946","0.0-2.0-2.95-0.95","0uk","[""L""]","","","","","","null","key","null","null","16.68701666666699","798","448.5","2","1","0","1","0","","",""
"","psychophysics","322","548664","0.0-2.0-0.96","0uk","[""L""]","","","","","","15","key","z","z","16.68695238095132","798","448.5","2","0","0","0","1","false","",""
"","psychophysics","323","549671","0.0-2.0-1.96","0uk","[""L""]","","","","","","null","key","null","null","16.68622033898245","798","448.5","2","0","0","0","1","","",""
"","psychophysics","324","550680","0.0-2.0-3.96-0.96","0uk","[""L""]","","","","","","null","key","null","null","16.68631666666673","798","448.5","2","0","0","0","1","","",""
"","psychophysics","325","551664","0.0-2.0-0.97","0uk","[""L""]","","","","","","280","key","m","m","16.686431034482165","798","448.5","1","0","1","0","1","false","",""
"","psychophysics","326","552671","0.0-2.0-1.97","0uk","[""L""]","","","","","","null","key","null","null","16.68610169491494","798","448.5","1","0","1","0","1","","",""
"","psychophysics","327","553682","0.0-2.0-3.97-0.97","0uk","[""L""]","","","","","","null","key","null","null","16.686549999999503","798","448.5","1","0","1","0","1","","",""
"","psychophysics","328","554584","0.0-2.0-0.98","0uk","[""L""]","","","","","","199","key","z","z","16.686396226414285","798","448.5","2","1","1","1","1","false","",""
"","psychophysics","329","555591","0.0-2.0-1.98","0uk","[""L""]","","","","","","null","key","null","null","16.68603389830352","798","448.5","2","1","1","1","1","","",""
"","psychophysics","330","556602","0.0-2.0-3.98-0.98","0uk","[""L""]","","","","","","null","key","null","null","16.685933333334592","798","448.5","2","1","1","1","1","","",""
"","psychophysics","331","557376","0.0-2.0-0.99","0uk","[""L""]","","","","","","70","key","m","m","16.686088888887834","798","448.5","2","1","0","1","0","true","",""
"","psychophysics","332","558392","0.0-2.0-1.99","0uk","[""L""]","","","","","","null","key","null","null","16.687355932203452","798","448.5","2","1","0","1","0","","",""
"","psychophysics","333","559400","0.0-2.0-2.99-0.99","0uk","[""L""]","","","","","","null","key","null","null","16.68564999999944","798","448.5","2","1","0","1","0","","",""
"","psychophysics","334","560537","0.0-2.0-0.100","0uk","[""L""]","","","","","","433","key","m","m","16.687029850745656","798","448.5","2","1","0","1","0","true","",""
"","psychophysics","335","561544","0.0-2.0-1.100","0uk","[""L""]","","","","","","null","key","null","null","16.685677966100986","798","448.5","2","1","0","1","0","","",""
"","psychophysics","336","562552","0.0-2.0-2.100-0.100","0uk","[""L""]","","","","","","null","key","null","null","16.687083333334886","798","448.5","2","1","0","1","0","","",""
"","psychophysics","337","563505","0.0-2.0-0.101","0uk","[""L""]","","","","","","250","key","m","m","16.68580357142907","798","448.5","1","0","0","1","1","false","",""
"","psychophysics","338","564512","0.0-2.0-1.101","0uk","[""L""]","","","","","","null","key","null","null","16.68577966101515","798","448.5","1","0","0","1","1","","",""
"","psychophysics","339","565521","0.0-2.0-3.101-0.101","0uk","[""L""]","","","","","","null","key","null","null","16.686500000001008","798","448.5","1","0","0","1","1","","",""
"","psychophysics","340","566513","0.0-2.0-0.102","0uk","[""L""]","","","","","","288","key","z","z","16.68575862068924","798","448.5","2","0","0","1","1","false","",""
"","psychophysics","341","567520","0.0-2.0-1.102","0uk","[""L""]","","","","","","null","key","null","null","16.68691525423615","798","448.5","2","0","0","1","1","","",""
"","psychophysics","342","568529","0.0-2.0-3.102-0.102","0uk","[""L""]","","","","","","null","key","null","null","16.686149999999905","798","448.5","2","0","0","1","1","","",""
"","psychophysics","343","569433","0.0-2.0-0.103","0uk","[""L""]","","","","","","199","key","z","z","16.68692452830201","798","448.5","2","1","1","1","1","false","",""
"","psychophysics","344","570440","0.0-2.0-1.103","0uk","[""L""]","","","","","","null","key","null","null","16.687101694915082","798","448.5","2","1","1","1","1","","",""
"","psychophysics","345","571450","0.0-2.0-3.103-0.103","0uk","[""L""]","","","","","","null","key","null","null","16.68574999999837","798","448.5","2","1","1","1","1","","",""
"","psychophysics","346","572569","0.0-2.0-0.104","0uk","[""L""]","","","","","","415","key","z","z","16.68654545454598","798","448.5","1","0","1","0","0","true","",""
"","psychophysics","347","573576","0.0-2.0-1.104","0uk","[""L""]","","","","","","null","key","null","null","16.68605084745687","798","448.5","1","0","1","0","0","","",""
"","psychophysics","348","574585","0.0-2.0-2.104-0.104","0uk","[""L""]","","","","","","null","key","null","null","16.686366666667162","798","448.5","1","0","1","0","0","","",""
"","psychophysics","349","575450","0.0-2.0-0.105","0uk","[""L""]","","","","","","161","key","z","z","16.685568627451694","798","448.5","1","0","1","1","1","true","",""
"","psychophysics","350","576457","0.0-2.0-1.105","0uk","[""L""]","","","","","","null","key","null","null","16.686033898305496","798","448.5","1","0","1","1","1","","",""
"","psychophysics","351","577468","0.0-2.0-2.105-0.105","0uk","[""L""]","","","","","","null","key","null","null","16.68733333333318","798","448.5","1","0","1","1","1","","",""
"","psychophysics","352","578465","0.0-2.0-0.106","0uk","[""L""]","","","","","","292","key","m","m","16.68515517241482","798","448.5","1","0","1","1","1","false","",""
"","psychophysics","353","579471","0.0-2.0-1.106","0uk","[""L""]","","","","","","null","key","null","null","16.686716666666324","798","448.5","1","0","1","1","1","","",""
"","psychophysics","354","580480","0.0-2.0-3.106-0.106","0uk","[""L""]","","","","","","null","key","null","null","16.68613559321966","798","448.5","1","0","1","1","1","","",""
"","psychophysics","355","581513","0.0-2.0-0.107","0uk","[""L""]","","","","","","329","key","m","m","16.687278688524575","798","448.5","1","0","0","0","1","false","",""
"","psychophysics","356","582524","0.0-2.0-1.107","0uk","[""L""]","","","","","","null","key","null","null","16.68601666666606","798","448.5","1","0","0","0","1","","",""
"","psychophysics","357","583532","0.0-2.0-3.107-0.107","0uk","[""L""]","","","","","","null","key","null","null","16.68569491525433","798","448.5","1","0","0","0","1","","",""
"","psychophysics","358","584521","0.0-2.0-0.108","0uk","[""L""]","","","","","","284","key","z","z","16.687189655173732","798","448.5","2","1","0","1","1","false","",""
"","psychophysics","359","585528","0.0-2.0-1.108","0uk","[""L""]","","","","","","null","key","null","null","16.685833333333722","798","448.5","2","1","0","1","1","","",""
"","psychophysics","360","586537","0.0-2.0-3.108-0.108","0uk","[""L""]","","","","","","null","key","null","null","16.684983050847283","798","448.5","2","1","0","1","1","","",""
"","psychophysics","361","588033","0.0-2.0-0.109","0uk","[""L""]","","","","","","793","key","m","m","16.68629213483099","798","448.5","2","0","1","1","0","true","",""
"","psychophysics","362","589039","0.0-2.0-1.109","0uk","[""L""]","","","","","","null","key","null","null","16.68500000000063","798","448.5","2","0","1","1","0","","",""
"","psychophysics","363","590049","0.0-2.0-2.109-0.109","0uk","[""L""]","","","","","","null","key","null","null","16.686733333333784","798","448.5","2","0","1","1","0","","",""
"","psychophysics","364","591361","0.0-2.0-0.110","0uk","[""L""]","","","","","","608","key","m","m","16.6855844155849","798","448.5","2","1","0","1","1","true","",""
"","psychophysics","365","592368","0.0-2.0-1.110","0uk","[""L""]","","","","","","null","key","null","null","16.686883333335086","798","448.5","2","1","0","1","1","","",""
"","psychophysics","366","593377","0.0-2.0-2.110-0.110","0uk","[""L""]","","","","","","null","key","null","null","16.685457627119305","798","448.5","2","1","0","1","1","","",""
"","psychophysics","367","594313","0.0-2.0-0.111","0uk","[""L""]","","","","","","233","key","m","m","16.686818181818605","798","448.5","1","1","0","1","0","false","",""
"","psychophysics","368","595322","0.0-2.0-1.111","0uk","[""L""]","","","","","","null","key","null","null","16.688166666665346","798","448.5","1","1","0","1","0","","",""
"","psychophysics","369","596330","0.0-2.0-3.111-0.111","0uk","[""L""]","","","","","","null","key","null","null","16.68533898304982","798","448.5","1","1","0","1","0","","",""
"","psychophysics","370","597681","0.0-2.0-0.112","0uk","[""L""]","","","","","","648","key","z","z","16.686424999999872","798","448.5","2","0","1","0","0","false","",""
"","psychophysics","371","598688","0.0-2.0-1.112","0uk","[""L""]","","","","","","null","key","null","null","16.6864406779661","798","448.5","2","0","1","0","0","","",""
"","psychophysics","372","599697","0.0-2.0-3.112-0.112","0uk","[""L""]","","","","","","null","key","null","null","16.687750000000232","798","448.5","2","0","1","0","0","","",""
"","psychophysics","373","600545","0.0-2.0-0.113","0uk","[""L""]","","","","","","144","key","m","m","16.68624000000069","798","448.5","2","1","0","1","0","true","",""
"","psychophysics","374","601552","0.0-2.0-1.113","0uk","[""L""]","","","","","","null","key","null","null","16.686135593221632","798","448.5","2","1","0","1","0","","",""
"","psychophysics","375","602563","0.0-2.0-2.113-0.113","0uk","[""L""]","","","","","","null","key","null","null","16.68676666666676","798","448.5","2","1","0","1","0","","",""
"","psychophysics","376","603321","0.0-2.0-0.114","0uk","[""L""]","","","","","","52","key","m","m","16.686250000001483","798","448.5","1","1","1","0","1","false","",""
"","psychophysics","377","604327","0.0-2.0-1.114","0uk","[""L""]","","","","","","null","key","null","null","16.68776271186406","798","448.5","1","1","1","0","1","","",""
"","psychophysics","378","605335","0.0-2.0-3.114-0.114","0uk","[""L""]","","","","","","null","key","null","null","16.68550000000008","798","448.5","1","1","1","0","1","","",""
"","psychophysics","379","606435","0.0-2.0-0.115","0uk","[""L""]","","","","","","397","key","z","z","16.686738461539004","798","448.5","2","1","1","0","1","false","",""
"","psychophysics","380","607443","0.0-2.0-1.115","0uk","[""L""]","","","","","","null","key","null","null","16.685932203389356","798","448.5","2","1","1","0","1","","",""
"","psychophysics","381","608453","0.0-2.0-3.115-0.115","0uk","[""L""]","","","","","","null","key","null","null","16.68669999999887","798","448.5","2","1","1","0","1","","",""
"","psychophysics","382","609265","0.0-2.0-0.116","0uk","[""L""]","","","","","","106","key","m","m","16.686106382978167","798","448.5","2","0","0","0","1","true","",""
"","psychophysics","383","610272","0.0-2.0-1.116","0uk","[""L""]","","","","","","null","key","null","null","16.685866666666698","798","448.5","2","0","0","0","1","","",""
"","psychophysics","384","611281","0.0-2.0-2.116-0.116","0uk","[""L""]","","","","","","null","key","null","null","16.685779661017122","798","448.5","2","0","0","0","1","","",""
"","psychophysics","385","612425","0.0-2.0-0.117","0uk","[""L""]","","","","","","442","key","m","m","16.686779411764718","798","448.5","2","0","1","0","1","true","",""
"","psychophysics","386","613434","0.0-2.0-1.117","0uk","[""L""]","","","","","","null","key","null","null","16.685033898305353","798","448.5","2","0","1","0","1","","",""
"","psychophysics","387","614444","0.0-2.0-2.117-0.117","0uk","[""L""]","","","","","","null","key","null","null","16.68630000000121","798","448.5","2","0","1","0","1","","",""
"","psychophysics","388","615273","0.0-2.0-0.118","0uk","[""L""]","","","","","","125","key","m","m","16.68597916666719","798","448.5","1","1","1","1","1","false","",""
"","psychophysics","389","616280","0.0-2.0-1.118","0uk","[""L""]","","","","","","null","key","null","null","16.68658333333248","798","448.5","1","1","1","1","1","","",""
"","psychophysics","390","617288","0.0-2.0-3.118-0.118","0uk","[""L""]","","","","","","null","key","null","null","16.687169491524525","798","448.5","1","1","1","1","1","","",""
"","psychophysics","391","618537","0.0-2.0-0.119","0uk","[""L""]","","","","","","545","key","z","z","16.68651351351228","798","448.5","2","0","1","0","1","false","",""
"","psychophysics","392","619544","0.0-2.0-1.119","0uk","[""L""]","","","","","","null","key","null","null","16.68659322034031","798","448.5","2","0","1","0","1","","",""
"","psychophysics","393","620552","0.0-2.0-3.119-0.119","0uk","[""L""]","","","","","","null","key","null","null","16.686716666666324","798","448.5","2","0","1","0","1","","",""
"","psychophysics","394","621697","0.0-2.0-0.120","0uk","[""L""]","","","","","","442","key","m","m","16.685910447761277","798","448.5","2","1","1","1","0","true","",""
"","psychophysics","395","622704","0.0-2.0-1.120","0uk","[""L""]","","","","","","null","key","null","null","16.687300000000203","798","448.5","2","1","1","1","0","","",""
"","psychophysics","396","623713","0.0-2.0-2.120-0.120","0uk","[""L""]","","","","","","null","key","null","null","16.6859999999988","798","448.5","2","1","1","1","0","","",""
"","psychophysics","397","624440","0.0-2.0-0.121","0uk","[""L""]","","","","","","24","key","m","m","16.687511627906176","798","448.5","1","1","1","1","0","false","",""
"","psychophysics","398","625447","0.0-2.0-1.121","0uk","[""L""]","","","","","","null","key","null","null","16.685915254237983","798","448.5","1","1","1","1","0","","",""
"","psychophysics","399","626458","0.0-2.0-3.121-0.121","0uk","[""L""]","","","","","","null","key","null","null","16.68676666666676","798","448.5","1","1","1","1","0","","",""
"","psychophysics","400","627585","0.0-2.0-0.122","0uk","[""L""]","","","","","","423","key","z","z","16.68643939394017","798","448.5","2","0","0","0","0","false","",""
"","psychophysics","401","628593","0.0-2.0-1.122","0uk","[""L""]","","","","","","null","key","null","null","16.686649999998433","798","448.5","2","0","0","0","0","","",""
"","psychophysics","402","629603","0.0-2.0-3.122-0.122","0uk","[""L""]","","","","","","null","key","null","null","16.68561016949154","798","448.5","2","0","0","0","0","","",""
"","psychophysics","403","630513","0.0-2.0-0.123","0uk","[""L""]","","","","","","208","key","m","m","16.686555555553813","798","448.5","1","0","1","0","0","false","",""
"","psychophysics","404","631522","0.0-2.0-1.123","0uk","[""L""]","","","","","","null","key","null","null","16.68540677966124","798","448.5","1","0","1","0","0","","",""
"","psychophysics","405","632531","0.0-2.0-3.123-0.123","0uk","[""L""]","","","","","","null","key","null","null","16.68554999999857","798","448.5","1","0","1","0","0","","",""
"","psychophysics","406","633769","0.0-2.0-0.124","0uk","[""L""]","","","","","","533","key","z","z","16.685602739726015","798","448.5","1","1","1","1","1","true","",""
"","psychophysics","407","634776","0.0-2.0-1.124","0uk","[""L""]","","","","","","null","key","null","null","16.686118644068287","798","448.5","1","1","1","1","1","","",""
"","psychophysics","408","635785","0.0-2.0-2.124-0.124","0uk","[""L""]","","","","","","null","key","null","null","16.68741666666659","798","448.5","1","1","1","1","1","","",""
"","psychophysics","409","636921","0.0-2.0-0.125","0uk","[""L""]","","","","","","433","key","z","z","16.685552238806416","798","448.5","2","0","0","1","1","false","",""
"","psychophysics","410","637928","0.0-2.0-1.125","0uk","[""L""]","","","","","","null","key","null","null","16.685016949152004","798","448.5","2","0","0","1","1","","",""
"","psychophysics","411","638939","0.0-2.0-3.125-0.125","0uk","[""L""]","","","","","","null","key","null","null","16.687049999999967","798","448.5","2","0","0","1","1","","",""
"","psychophysics","412","639993","0.0-2.0-0.126","0uk","[""L""]","","","","","","350","key","m","m","16.687274193548927","798","448.5","1","0","0","1","0","false","",""
"","psychophysics","413","641000","0.0-2.0-1.126","0uk","[""L""]","","","","","","null","key","null","null","16.685915254237983","798","448.5","1","0","0","1","0","","",""
"","psychophysics","414","642009","0.0-2.0-3.126-0.126","0uk","[""L""]","","","","","","null","key","null","null","16.686066666666495","798","448.5","1","0","0","1","0","","",""
"","psychophysics","415","643073","0.0-2.0-0.127","0uk","[""L""]","","","","","","359","key","z","z","16.686758064516564","798","448.5","2","1","0","1","1","false","",""
"","psychophysics","416","644080","0.0-2.0-1.127","0uk","[""L""]","","","","","","null","key","null","null","16.68621666666586","798","448.5","2","1","0","1","1","","",""
"","psychophysics","417","645088","0.0-2.0-3.127-0.127","0uk","[""L""]","","","","","","null","key","null","null","16.686559322033613","798","448.5","2","1","0","1","1","","",""
"","psychophysics","418","645825","0.0-2.0-0.128","0uk","[""L""]","","","","","","33","key","z","z","16.686325581395067","798","448.5","1","1","0","1","1","true","",""
"","psychophysics","419","646832","0.0-2.0-1.128","0uk","[""L""]","","","","","","null","key","null","null","16.685800000000746","798","448.5","1","1","0","1","1","","",""
"","psychophysics","420","647841","0.0-2.0-2.128-0.128","0uk","[""L""]","","","","","","null","key","null","null","16.68516949152424","798","448.5","1","1","0","1","1","","",""
"","psychophysics","421","648697","0.0-2.0-0.129","0uk","[""L""]","","","","","","153","key","m","m","16.686480000000447","798","448.5","2","0","1","0","0","true","",""
"","psychophysics","422","649704","0.0-2.0-1.129","0uk","[""L""]","","","","","","null","key","null","null","16.686633333332914","798","448.5","2","0","1","0","0","","",""
"","psychophysics","423","650713","0.0-2.0-2.129-0.129","0uk","[""L""]","","","","","","null","key","null","null","16.68569491525433","798","448.5","2","0","1","0","0","","",""
"","psychophysics","424","652409","0.0-2.0-0.130","0uk","[""L""]","","","","","","993","key","m","m","16.686366336633416","798","448.5","2","1","1","1","1","true","",""
"","psychophysics","425","653415","0.0-2.0-1.130","0uk","[""L""]","","","","","","null","key","null","null","16.691932203388237","798","448.5","2","1","1","1","1","","",""
"","psychophysics","426","654424","0.0-2.0-2.130-0.130","0uk","[""L""]","","","","","","null","key","null","null","16.686449999998633","798","448.5","2","1","1","1","1","","",""
"","psychophysics","427","655817","0.0-2.0-0.131","0uk","[""L""]","","","","","","690","key","z","z","16.68587804878011","798","448.5","2","1","1","1","0","false","",""
"","psychophysics","428","656826","0.0-2.0-1.131","0uk","[""L""]","","","","","","null","key","null","null","16.686249999998836","798","448.5","2","1","1","1","0","","",""
"","psychophysics","429","657835","0.0-2.0-3.131-0.131","0uk","[""L""]","","","","","","null","key","null","null","16.68610169491494","798","448.5","2","1","1","1","0","","",""
"","psychophysics","430","658648","0.0-2.0-0.132","0uk","[""L""]","","","","","","110","key","m","m","16.686291666665056","798","448.5","1","1","0","0","0","false","",""
"","psychophysics","431","659656","0.0-2.0-1.132","0uk","[""L""]","","","","","","null","key","null","null","16.686745762712544","798","448.5","1","1","0","0","0","","",""
"","psychophysics","432","660664","0.0-2.0-3.132-0.132","0uk","[""L""]","","","","","","null","key","null","null","16.686899999998666","798","448.5","1","1","0","0","0","","",""
"","psychophysics","433","661400","0.0-2.0-0.133","0uk","[""L""]","","","","","","33","key","z","z","16.684976744186674","798","448.5","1","1","0","1","1","true","",""
"","psychophysics","434","662407","0.0-2.0-1.133","0uk","[""L""]","","","","","","null","key","null","null","16.687033898303664","798","448.5","1","1","0","1","1","","",""
"","psychophysics","435","663417","0.0-2.0-2.133-0.133","0uk","[""L""]","","","","","","null","key","null","null","16.687383333333614","798","448.5","1","1","0","1","1","","",""
"","psychophysics","436","665672","0.0-2.0-0.134","0uk","[""L""]","","","","","","1552","key","z","z","16.68535820895514","798","448.5","1","0","0","1","0","true","",""
"","psychophysics","437","666679","0.0-2.0-1.134","0uk","[""L""]","","","","","","null","key","null","null","16.686813559321987","798","448.5","1","0","0","1","0","","",""
"","psychophysics","438","667688","0.0-2.0-2.134-0.134","0uk","[""L""]","","","","","","null","key","null","null","16.687283333332743","798","448.5","1","0","0","1","0","","",""
"","psychophysics","439","668769","0.0-2.0-0.135","0uk","[""L""]","","","","","","376","key","z","z","16.68714285714345","798","448.5","2","1","0","1","1","false","",""
"","psychophysics","440","669775","0.0-2.0-1.135","0uk","[""L""]","","","","","","null","key","null","null","16.686500000001008","798","448.5","2","1","0","1","1","","",""
"","psychophysics","441","670784","0.0-2.0-3.135-0.135","0uk","[""L""]","","","","","","null","key","null","null","16.68535593220317","798","448.5","2","1","0","1","1","","",""
"","psychophysics","442","671961","0.0-2.0-0.136","0uk","[""L""]","","","","","","473","key","m","m","16.6865428571423","798","448.5","2","1","1","1","1","true","",""
"","psychophysics","443","672967","0.0-2.0-1.136","0uk","[""L""]","","","","","","null","key","null","null","16.685864406779913","798","448.5","2","1","1","1","1","","",""
"","psychophysics","444","673976","0.0-2.0-2.136-0.136","0uk","[""L""]","","","","","","null","key","null","null","16.68652542372889","798","448.5","2","1","1","1","1","","",""
"","psychophysics","445","674914","0.0-2.0-0.137","0uk","[""L""]","","","","","","234","key","z","z","16.686714285712306","798","448.5","2","1","1","1","1","false","",""
"","psychophysics","446","675922","0.0-2.0-1.137","0uk","[""L""]","","","","","","null","key","null","null","16.685525423728752","798","448.5","2","1","1","1","1","","",""
"","psychophysics","447","676932","0.0-2.0-3.137-0.137","0uk","[""L""]","","","","","","null","key","null","null","16.686549999999503","798","448.5","2","1","1","1","1","","",""
"","psychophysics","448","678009","0.0-2.0-0.138","0uk","[""L""]","","","","","","373","key","m","m","16.687825396825147","798","448.5","2","0","0","0","1","true","",""
"","psychophysics","449","679019","0.0-2.0-1.138","0uk","[""L""]","","","","","","null","key","null","null","16.68594999999817","798","448.5","2","0","0","0","1","","",""
"","psychophysics","450","680028","0.0-2.0-2.138-0.138","0uk","[""L""]","","","","","","null","key","null","null","16.685966101696053","798","448.5","2","0","0","0","1","","",""
"","psychophysics","451","680825","0.0-2.0-0.139","0uk","[""L""]","","","","","","94","key","z","z","16.686638297872282","798","448.5","2","1","0","1","0","false","",""
"","psychophysics","452","681831","0.0-2.0-1.139","0uk","[""L""]","","","","","","null","key","null","null","16.687101694915082","798","448.5","2","1","0","1","0","","",""
"","psychophysics","453","682840","0.0-2.0-3.139-0.139","0uk","[""L""]","","","","","","null","key","null","null","16.68678333333228","798","448.5","2","1","0","1","0","","",""
"","psychophysics","454","683593","0.0-2.0-0.140","0uk","[""L""]","","","","","","49","key","m","m","16.686818181820193","798","448.5","1","1","1","1","1","false","",""
"","psychophysics","455","684600","0.0-2.0-1.140","0uk","[""L""]","","","","","","null","key","null","null","16.685813559321844","798","448.5","1","1","1","1","1","","",""
"","psychophysics","456","685610","0.0-2.0-3.140-0.140","0uk","[""L""]","","","","","","null","key","null","null","16.687216666666792","798","448.5","1","1","1","1","1","","",""
"","psychophysics","457","686649","0.0-2.0-0.141","0uk","[""L""]","","","","","","336","key","z","z","16.68673770491713","798","448.5","1","0","1","0","1","true","",""
"","psychophysics","458","687657","0.0-2.0-1.141","0uk","[""L""]","","","","","","null","key","null","null","16.68732203389873","798","448.5","1","0","1","0","1","","",""
"","psychophysics","459","688667","0.0-2.0-2.141-0.141","0uk","[""L""]","","","","","","null","key","null","null","16.686650000000373","798","448.5","1","0","1","0","1","","",""
"","psychophysics","460","691401","0.0-2.0-0.142","0uk","[""L""]","","","","","","2031","key","z","z","16.685834355828028","798","448.5","1","1","0","1","0","true","",""
"","psychophysics","461","692410","0.0-2.0-1.142","0uk","[""L""]","","","","","","null","key","null","null","16.686254237289145","798","448.5","1","1","0","1","0","","",""
"","psychophysics","462","693418","0.0-2.0-2.142-0.142","0uk","[""L""]","","","","","","null","key","null","null","16.686516666666527","798","448.5","1","1","0","1","0","","",""
"","psychophysics","463","694921","0.0-2.0-0.143","0uk","[""L""]","","","","","","799","key","m","m","16.68541573033684","798","448.5","1","0","1","1","0","false","",""
"","psychophysics","464","695928","0.0-2.0-1.143","0uk","[""L""]","","","","","","null","key","null","null","16.685949152542705","798","448.5","1","0","1","1","0","","",""
"","psychophysics","465","696939","0.0-2.0-3.143-0.143","0uk","[""L""]","","","","","","null","key","null","null","16.68658333333248","798","448.5","1","0","1","1","0","","",""
"","psychophysics","466","698249","0.0-2.0-0.144","0uk","[""L""]","","","","","","605","key","z","z","16.685766233766284","798","448.5","2","0","1","0","1","false","",""
"","psychophysics","467","699258","0.0-2.0-1.144","0uk","[""L""]","","","","","","null","key","null","null","16.686816666667195","798","448.5","2","0","1","0","1","","",""
"","psychophysics","468","700268","0.0-2.0-3.144-0.144","0uk","[""L""]","","","","","","null","key","null","null","16.685576271184846","798","448.5","2","0","1","0","1","","",""
"","psychophysics","469","701762","0.0-2.0-0.145","0uk","[""L""]","","","","","","791","key","m","m","16.686786516854706","798","448.5","1","0","0","1","1","false","",""
"","psychophysics","470","702770","0.0-2.0-1.145","0uk","[""L""]","","","","","","null","key","null","null","16.685949152542705","798","448.5","1","0","0","1","1","","",""
"","psychophysics","471","703780","0.0-2.0-3.145-0.145","0uk","[""L""]","","","","","","null","key","null","null","16.686233333333316","798","448.5","1","0","0","1","1","","",""
"","psychophysics","472","704682","0.0-2.0-0.146","0uk","[""L""]","","","","","","198","key","z","z","16.685716981131954","798","448.5","2","1","0","1","1","false","",""
"","psychophysics","473","705690","0.0-2.0-1.146","0uk","[""L""]","","","","","","null","key","null","null","16.686050847458844","798","448.5","2","1","0","1","1","","",""
"","psychophysics","474","706700","0.0-2.0-3.146-0.146","0uk","[""L""]","","","","","","null","key","null","null","16.687199999999333","798","448.5","2","1","0","1","1","","",""
"","psychophysics","475","707841","0.0-2.0-0.147","0uk","[""L""]","","","","","","436","key","m","m","16.685761194029794","798","448.5","1","0","0","0","1","false","",""
"","psychophysics","476","708848","0.0-2.0-1.147","0uk","[""L""]","","","","","","null","key","null","null","16.685220338982308","798","448.5","1","0","0","0","1","","",""
"","psychophysics","477","709856","0.0-2.0-3.147-0.147","0uk","[""L""]","","","","","","null","key","null","null","16.68676666666676","798","448.5","1","0","0","0","1","","",""
"","psychophysics","478","710961","0.0-2.0-0.148","0uk","[""L""]","","","","","","402","key","m","m","16.68472307692282","798","448.5","2","1","0","1","1","true","",""
"","psychophysics","479","711968","0.0-2.0-1.148","0uk","[""L""]","","","","","","null","key","null","null","16.68588135593326","798","448.5","2","1","0","1","1","","",""
"","psychophysics","480","712977","0.0-2.0-2.148-0.148","0uk","[""L""]","","","","","","null","key","null","null","16.68713333333338","798","448.5","2","1","0","1","1","","",""
"","psychophysics","481","714089","0.0-2.0-0.149","0uk","[""L""]","","","","","","409","key","m","m","16.685769230768514","798","448.5","2","1","0","1","1","true","",""
"","psychophysics","482","715097","0.0-2.0-1.149","0uk","[""L""]","","","","","","null","key","null","null","16.686349999999706","798","448.5","2","1","0","1","1","","",""
"","psychophysics","483","716105","0.0-2.0-2.149-0.149","0uk","[""L""]","","","","","","null","key","null","null","16.684830508473077","798","448.5","2","1","0","1","1","","",""
"","psychophysics","484","716963","0.0-2.0-0.150","0uk","[""L""]","","","","","","154","key","m","m","16.687137254901852","798","448.5","2","1","0","1","1","true","",""
"","psychophysics","485","717970","0.0-2.0-1.150","0uk","[""L""]","","","","","","null","key","null","null","16.685779661017122","798","448.5","2","1","0","1","1","","",""
"","psychophysics","486","718981","0.0-2.0-2.150-0.150","0uk","[""L""]","","","","","","null","key","null","null","16.6867499999993","798","448.5","2","1","0","1","1","","",""
"","psychophysics","487","719849","0.0-2.0-0.151","0uk","[""L""]","","","","","","164","key","m","m","16.685294117646144","798","448.5","2","1","1","1","1","true","",""
"","psychophysics","488","720857","0.0-2.0-1.151","0uk","[""L""]","","","","","","null","key","null","null","16.685271186440378","798","448.5","2","1","1","1","1","","",""
"","psychophysics","489","721868","0.0-2.0-2.151-0.151","0uk","[""L""]","","","","","","null","key","null","null","16.686499999999068","798","448.5","2","1","1","1","1","","",""
"","psychophysics","490","722849","0.0-2.0-0.152","0uk","[""L""]","","","","","","277","key","z","z","16.686228070175275","798","448.5","2","1","1","1","1","false","",""
"","psychophysics","491","723856","0.0-2.0-1.152","0uk","[""L""]","","","","","","null","key","null","null","16.685050000000047","798","448.5","2","1","1","1","1","","",""
"","psychophysics","492","724865","0.0-2.0-3.152-0.152","0uk","[""L""]","","","","","","null","key","null","null","16.685220338982308","798","448.5","2","1","1","1","1","","",""
"","psychophysics","493","725857","0.0-2.0-0.153","0uk","[""L""]","","","","","","289","key","m","m","16.685627118644888","798","448.5","1","1","1","1","1","false","",""
"","psychophysics","494","726864","0.0-2.0-1.153","0uk","[""L""]","","","","","","null","key","null","null","16.685338983051796","798","448.5","1","1","1","1","1","","",""
"","psychophysics","495","727875","0.0-2.0-3.153-0.153","0uk","[""L""]","","","","","","null","key","null","null","16.686899999998666","798","448.5","1","1","1","1","1","","",""
"","psychophysics","496","728860","0.0-2.0-0.154","0uk","[""L""]","","","","","","282","key","z","z","16.689103448277756","798","448.5","1","0","0","0","1","true","",""
"","psychophysics","497","729868","0.0-2.0-1.154","0uk","[""L""]","","","","","","null","key","null","null","16.685542372880125","798","448.5","1","0","0","0","1","","",""
"","psychophysics","498","730878","0.0-2.0-2.154-0.154","0uk","[""L""]","","","","","","null","key","null","null","16.686183333332885","798","448.5","1","0","0","0","1","","",""
"","psychophysics","499","731721","0.0-2.0-0.155","0uk","[""L""]","","","","","","139","key","m","m","16.685346938776593","798","448.5","2","0","1","1","1","true","",""
"","psychophysics","500","732730","0.0-2.0-1.155","0uk","[""L""]","","","","","","null","key","null","null","16.68668333333335","798","448.5","2","0","1","1","1","","",""
"","psychophysics","501","733739","0.0-2.0-2.155-0.155","0uk","[""L""]","","","","","","null","key","null","null","16.684847457628397","798","448.5","2","0","1","1","1","","",""
"","psychophysics","502","734577","0.0-2.0-0.156","0uk","[""L""]","","","","","","135","key","m","m","16.68632653061234","798","448.5","2","1","1","0","1","true","",""
"","psychophysics","503","735584","0.0-2.0-1.156","0uk","[""L""]","","","","","","null","key","null","null","16.686966666666557","798","448.5","2","1","1","0","1","","",""
"","psychophysics","504","736593","0.0-2.0-2.156-0.156","0uk","[""L""]","","","","","","null","key","null","null","16.68569491525433","798","448.5","2","1","1","0","1","","",""
"","psychophysics","505","737728","0.0-2.0-0.157","0uk","[""L""]","","","","","","433","key","m","m","16.68647761193952","798","448.5","2","1","0","0","1","true","",""
"","psychophysics","506","738737","0.0-2.0-1.157","0uk","[""L""]","","","","","","null","key","null","null","16.686733333331844","798","448.5","2","1","0","0","1","","",""
"","psychophysics","507","739746","0.0-2.0-2.157-0.157","0uk","[""L""]","","","","","","null","key","null","null","16.68483050847505","798","448.5","2","1","0","0","1","","",""
"","psychophysics","508","741017","0.0-2.0-0.158","0uk","[""L""]","","","","","","567","key","m","m","16.686239999999913","798","448.5","1","0","1","1","1","false","",""
"","psychophysics","509","742024","0.0-2.0-1.158","0uk","[""L""]","","","","","","null","key","null","null","16.68620000000034","798","448.5","1","0","1","1","1","","",""
"","psychophysics","510","743033","0.0-2.0-3.158-0.158","0uk","[""L""]","","","","","","null","key","null","null","16.684779661016982","798","448.5","1","0","1","1","1","","",""
"","psychophysics","511","743937","0.0-2.0-0.159","0uk","[""L""]","","","","","","200","key","z","z","16.68650943396244","798","448.5","2","0","0","0","0","false","",""
"","psychophysics","512","744945","0.0-2.0-1.159","0uk","[""L""]","","","","","","null","key","null","null","16.68603333333352","798","448.5","2","0","0","0","0","","",""
"","psychophysics","513","745954","0.0-2.0-3.159-0.159","0uk","[""L""]","","","","","","null","key","null","null","16.685067796610074","798","448.5","2","0","0","0","0","","",""
"","psychophysics","514","746793","0.0-2.0-0.160","0uk","[""L""]","","","","","","136","key","m","m","16.68687755102054","798","448.5","2","1","0","1","1","true","",""
"","psychophysics","515","747801","0.0-2.0-1.160","0uk","[""L""]","","","","","","null","key","null","null","16.686983333334016","798","448.5","2","1","0","1","1","","",""
"","psychophysics","516","748810","0.0-2.0-2.160-0.160","0uk","[""L""]","","","","","","null","key","null","null","16.685677966102958","798","448.5","2","1","0","1","1","","",""
"","psychophysics","517","749684","0.0-2.0-0.161","0uk","[""L""]","","","","","","171","key","m","m","16.68713461538517","798","448.5","2","1","0","1","1","true","",""
"","psychophysics","518","750691","0.0-2.0-1.161","0uk","[""L""]","","","","","","null","key","null","null","16.686338983051936","798","448.5","2","1","0","1","1","","",""
"","psychophysics","519","751702","0.0-2.0-2.161-0.161","0uk","[""L""]","","","","","","null","key","null","null","16.686799999999735","798","448.5","2","1","0","1","1","","",""
"","psychophysics","520","752817","0.0-2.0-0.162","0uk","[""L""]","","","","","","411","key","m","m","16.686984615384315","798","448.5","1","0","1","0","1","false","",""
"","psychophysics","521","753824","0.0-2.0-1.162","0uk","[""L""]","","","","","","null","key","null","null","16.68476666666684","798","448.5","1","0","1","0","1","","",""
"","psychophysics","522","754832","0.0-2.0-3.162-0.162","0uk","[""L""]","","","","","","null","key","null","null","16.68622033898245","798","448.5","1","0","1","0","1","","",""
"","psychophysics","523","755657","0.0-2.0-0.163","0uk","[""L""]","","","","","","121","key","z","z","16.686510204083323","798","448.5","2","0","0","1","1","false","",""
"","psychophysics","524","756665","0.0-2.0-1.163","0uk","[""L""]","","","","","","null","key","null","null","16.684847457626425","798","448.5","2","0","0","1","1","","",""
"","psychophysics","525","757675","0.0-2.0-3.163-0.163","0uk","[""L""]","","","","","","null","key","null","null","16.686450000000573","798","448.5","2","0","0","1","1","","",""
"","psychophysics","526","758794","0.0-2.0-0.164","0uk","[""L""]","","","","","","416","key","m","m","16.685833333331782","798","448.5","1","0","0","0","1","false","",""
"","psychophysics","527","759801","0.0-2.0-1.164","0uk","[""L""]","","","","","","null","key","null","null","16.68608474576159","798","448.5","1","0","0","0","1","","",""
"","psychophysics","528","760812","0.0-2.0-3.164-0.164","0uk","[""L""]","","","","","","null","key","null","null","16.689566666665876","798","448.5","1","0","0","0","1","","",""
"","psychophysics","529","761793","0.0-2.0-0.165","0uk","[""L""]","","","","","","277","key","z","z","16.68461403508646","798","448.5","1","1","1","1","1","true","",""
"","psychophysics","530","762802","0.0-2.0-1.165","0uk","[""L""]","","","","","","null","key","null","null","16.6875","798","448.5","1","1","1","1","1","","",""
"","psychophysics","531","763810","0.0-2.0-2.165-0.165","0uk","[""L""]","","","","","","null","key","null","null","16.683355932202886","798","448.5","1","1","1","1","1","","",""
"","psychophysics","532","764985","0.0-2.0-0.166","0uk","[""L""]","","","","","","471","key","z","z","16.685528571428065","798","448.5","2","1","0","1","1","false","",""
"","psychophysics","533","765992","0.0-2.0-1.166","0uk","[""L""]","","","","","","null","key","null","null","16.685864406779913","798","448.5","2","1","0","1","1","","",""
"","psychophysics","534","767003","0.0-2.0-3.166-0.166","0uk","[""L""]","","","","","","null","key","null","null","16.687200000001273","798","448.5","2","1","0","1","1","","",""
"","psychophysics","535","767833","0.0-2.0-0.167","0uk","[""L""]","","","","","","125","key","m","m","16.686166666666395","798","448.5","2","0","0","1","1","true","",""
"","psychophysics","536","768842","0.0-2.0-1.167","0uk","[""L""]","","","","","","null","key","null","null","16.686650000000373","798","448.5","2","0","0","1","1","","",""
"","psychophysics","537","769850","0.0-2.0-2.167-0.167","0uk","[""L""]","","","","","","null","key","null","null","16.685813559321844","798","448.5","2","0","0","1","1","","",""
"","psychophysics","538","770841","0.0-2.0-0.168","0uk","[""L""]","","","","","","287","key","z","z","16.686779661017265","798","448.5","2","0","1","0","1","false","",""
"","psychophysics","539","771849","0.0-2.0-1.168","0uk","[""L""]","","","","","","null","key","null","null","16.686542372880268","798","448.5","2","0","1","0","1","","",""
"","psychophysics","540","772860","0.0-2.0-3.168-0.168","0uk","[""L""]","","","","","","null","key","null","null","16.68693333333358","798","448.5","2","0","1","0","1","","",""
"","psychophysics","541","773912","0.0-2.0-0.169","0uk","[""L""]","","","","","","348","key","m","m","16.685661290323498","798","448.5","1","0","1","1","1","false","",""
"","psychophysics","542","774919","0.0-2.0-1.169","0uk","[""L""]","","","","","","null","key","null","null","16.685525423728752","798","448.5","1","0","1","1","1","","",""
"","psychophysics","543","775930","0.0-2.0-3.169-0.169","0uk","[""L""]","","","","","","null","key","null","null","16.686750000001243","798","448.5","1","0","1","1","1","","",""
"","psychophysics","544","777024","0.0-2.0-0.170","0uk","[""L""]","","","","","","391","key","z","z","16.685093749998487","798","448.5","2","0","1","1","1","false","",""
"","psychophysics","545","778032","0.0-2.0-1.170","0uk","[""L""]","","","","","","null","key","null","null","16.687300000000203","798","448.5","2","0","1","1","1","","",""
"","psychophysics","546","779042","0.0-2.0-3.170-0.170","0uk","[""L""]","","","","","","null","key","null","null","16.686423728812755","798","448.5","2","0","1","1","1","","",""
"","psychophysics","547","780803","0.0-2.0-0.171","0uk","[""L""]","","","","","","1058","key","m","m","16.68620952380976","798","448.5","1","1","1","1","1","false","",""
"","psychophysics","548","781810","0.0-2.0-1.171","0uk","[""L""]","","","","","","null","key","null","null","16.68544067796596","798","448.5","1","1","1","1","1","","",""
"","psychophysics","549","782821","0.0-2.0-3.171-0.171","0uk","[""L""]","","","","","","null","key","null","null","16.68613333333245","798","448.5","1","1","1","1","1","","",""
"","psychophysics","550","783609","0.0-2.0-0.172","0uk","[""L""]","","","","","","84","key","z","z","16.687347826087322","798","448.5","1","1","1","1","1","true","",""
"","psychophysics","551","784616","0.0-2.0-1.172","0uk","[""L""]","","","","","","null","key","null","null","16.68544067796596","798","448.5","1","1","1","1","1","","",""
"","psychophysics","552","785625","0.0-2.0-2.172-0.172","0uk","[""L""]","","","","","","null","key","null","null","16.683099999998618","798","448.5","1","1","1","1","1","","",""
"","psychophysics","553","786760","0.0-2.0-0.173","0uk","[""L""]","","","","","","432","key","z","z","16.68608955223871","798","448.5","2","1","0","1","0","false","",""
"","psychophysics","554","787768","0.0-2.0-1.173","0uk","[""L""]","","","","","","null","key","null","null","16.686118644068287","798","448.5","2","1","0","1","0","","",""
"","psychophysics","555","788778","0.0-2.0-3.173-0.173","0uk","[""L""]","","","","","","null","key","null","null","16.686549999999503","798","448.5","2","1","0","1","0","","",""
"","psychophysics","556","789880","0.0-2.0-0.174","0uk","[""L""]","","","","","","398","key","m","m","16.68635384615403","798","448.5","2","1","1","0","1","true","",""
"","psychophysics","557","790888","0.0-2.0-1.174","0uk","[""L""]","","","","","","null","key","null","null","16.686016949152148","798","448.5","2","1","1","0","1","","",""
"","psychophysics","558","791898","0.0-2.0-2.174-0.174","0uk","[""L""]","","","","","","null","key","null","null","16.68668333333335","798","448.5","2","1","1","0","1","","",""
"","psychophysics","559","792968","0.0-2.0-0.175","0uk","[""L""]","","","","","","366","key","m","m","16.685650793650733","798","448.5","1","1","0","1","0","false","",""
"","psychophysics","560","793975","0.0-2.0-1.175","0uk","[""L""]","","","","","","null","key","null","null","16.68715254237315","798","448.5","1","1","0","1","0","","",""
"","psychophysics","561","794985","0.0-2.0-3.175-0.175","0uk","[""L""]","","","","","","null","key","null","null","16.68595000000011","798","448.5","1","1","0","1","0","","",""
"","psychophysics","562","795808","0.0-2.0-0.176","0uk","[""L""]","","","","","","119","key","z","z","16.685854166666104","798","448.5","2","0","0","0","1","false","",""
"","psychophysics","563","796817","0.0-2.0-1.176","0uk","[""L""]","","","","","","null","key","null","null","16.687423728812895","798","448.5","2","0","0","0","1","","",""
"","psychophysics","564","797825","0.0-2.0-3.176-0.176","0uk","[""L""]","","","","","","null","key","null","null","16.68604999999904","798","448.5","2","0","0","0","1","","",""
"","psychophysics","565","798728","0.0-2.0-0.177","0uk","[""L""]","","","","","","199","key","m","m","16.685641509434646","798","448.5","1","1","0","1","1","false","",""
"","psychophysics","566","799736","0.0-2.0-1.177","0uk","[""L""]","","","","","","null","key","null","null","16.686423728812755","798","448.5","1","1","0","1","1","","",""
"","psychophysics","567","800745","0.0-2.0-3.177-0.177","0uk","[""L""]","","","","","","null","key","null","null","16.686166666667365","798","448.5","1","1","0","1","1","","",""
"","psychophysics","568","801520","0.0-2.0-0.178","0uk","[""L""]","","","","","","71","key","z","z","16.67997777777879","798","448.5","1","0","0","1","1","true","",""
"","psychophysics","569","802527","0.0-2.0-1.178","0uk","[""L""]","","","","","","null","key","null","null","16.685516666667535","798","448.5","1","0","0","1","1","","",""
"","psychophysics","570","803536","0.0-2.0-2.178-0.178","0uk","[""L""]","","","","","","null","key","null","null","16.685457627119305","798","448.5","1","0","0","1","1","","",""
"","psychophysics","571","805752","0.0-2.0-0.179","0uk","[""L""]","","","","","","1512","key","z","z","16.68618939393976","798","448.5","1","1","1","1","1","true","",""
"","psychophysics","572","806759","0.0-2.0-1.179","0uk","[""L""]","","","","","","null","key","null","null","16.6857457627124","798","448.5","1","1","1","1","1","","",""
"","psychophysics","573","807767","0.0-2.0-2.179-0.179","0uk","[""L""]","","","","","","null","key","null","null","16.685850000001178","798","448.5","1","1","1","1","1","","",""
