"success","trial_type","trial_index","time_elapsed","internal_node_id","subject","condition","timeout","failed_images","failed_audio","failed_video","view_history","rt","response_type","key_press","response","avg_frame_time","center_x","center_y","outcome","p1conf","p2conf","p1rslt","p2rslt","correct","stimulus","question_order"
"true","fullscreen","0","4045","0.0-0.0-0.0","ly1","[""L""]","","","","","","","","","","","","","","","","","","","",""
"true","preload","1","4050","0.0-0.0-1.0","ly1","[""L""]","false","[]","[]","[]","","","","","","","","","","","","","","","",""
"","instructions","2","64618","0.0-1.0","ly1","[""L""]","","","","","[{""page_index"":0,""viewing_time"":10965},{""page_index"":1,""viewing_time"":18328},{""page_index"":2,""viewing_time"":31272}]","60566","","","","","","","","","","","","","",""
"","psychophysics","3","72153","0.0-2.0-0.0","ly1","[""L""]","","","","","","6831","key","m","m","16.67194469026548","912","513","2","1","1","1","1","true","",""
"","psychophysics","4","73156","0.0-2.0-1.0","ly1","[""L""]","","","","","","null","key","null","null","16.671389830508367","912","513","2","1","1","1","1","","",""
"","psychophysics","5","74160","0.0-2.0-2.0-0.0","ly1","[""L""]","","","","","","null","key","null","null","16.67208474576281","912","513","2","1","1","1","1","","",""
"","psychophysics","6","81629","0.0-2.0-0.1","ly1","[""L""]","","","","","","6766","key","z","z","16.671760626398214","912","513","1","1","0","1","0","true","",""
"","psychophysics","7","82633","0.0-2.0-1.1","ly1","[""L""]","","","","","","null","key","null","null","16.672220338983177","912","513","1","1","0","1","0","","",""
"","psychophysics","8","83636","0.0-2.0-2.1-0.1","ly1","[""L""]","","","","","","null","key","null","null","16.671677966101708","912","513","1","1","0","1","0","","",""
"","psychophysics","9","94918","0.0-2.0-0.2","ly1","[""L""]","","","","","","10580","key","m","m","16.67206656804733","912","513","2","1","1","0","1","true","",""
"","psychophysics","10","95927","0.0-2.0-1.2","ly1","[""L""]","","","","","","null","key","null","null","16.671999999999873","912","513","2","1","1","0","1","","",""
"","psychophysics","11","96937","0.0-2.0-2.2-0.2","ly1","[""L""]","","","","","","null","key","null","null","16.67210169491517","912","513","2","1","1","0","1","","",""
"","psychophysics","12","102806","0.0-2.0-0.3","ly1","[""L""]","","","","","","5162","key","z","z","16.67206267806268","912","513","1","1","1","1","1","true","",""
"","psychophysics","13","103820","0.0-2.0-1.3","ly1","[""L""]","","","","","","null","key","null","null","16.672116666666746","912","513","1","1","1","1","1","","",""
"","psychophysics","14","104827","0.0-2.0-2.3-0.3","ly1","[""L""]","","","","","","null","key","null","null","16.672033898305234","912","513","1","1","1","1","1","","",""
"","psychophysics","15","111733","0.0-2.0-0.4","ly1","[""L""]","","","","","","6201","key","m","m","16.671859903381662","912","513","1","0","0","1","1","false","",""
"","psychophysics","16","112738","0.0-2.0-1.4","ly1","[""L""]","","","","","","null","key","null","null","16.670644067796598","912","513","1","0","0","1","1","","",""
"","psychophysics","17","113742","0.0-2.0-3.4-0.4","ly1","[""L""]","","","","","","null","key","null","null","16.67266101694924","912","513","1","0","0","1","1","","",""
"","psychophysics","18","120382","0.0-2.0-0.5","ly1","[""L""]","","","","","","5935","key","z","z","16.67205289672546","912","513","1","1","0","1","1","true","",""
"","psychophysics","19","121390","0.0-2.0-1.5","ly1","[""L""]","","","","","","null","key","null","null","16.671899999999976","912","513","1","1","0","1","1","","",""
"","psychophysics","20","122399","0.0-2.0-2.5-0.5","ly1","[""L""]","","","","","","null","key","null","null","16.671016949152484","912","513","1","1","0","1","1","","",""
"","psychophysics","21","127647","0.0-2.0-0.6","ly1","[""L""]","","","","","","4543","key","m","m","16.672035031847134","912","513","1","0","0","1","0","false","",""
"","psychophysics","22","128656","0.0-2.0-1.6","ly1","[""L""]","","","","","","null","key","null","null","16.673000000000076","912","513","1","0","0","1","0","","",""
"","psychophysics","23","129666","0.0-2.0-3.6-0.6","ly1","[""L""]","","","","","","null","key","null","null","16.670898305084723","912","513","1","0","0","1","0","","",""
"","psychophysics","24","141270","0.0-2.0-0.7","ly1","[""L""]","","","","","","10899","key","z","z","16.67189928057554","912","513","1","0","0","0","1","true","",""
"","psychophysics","25","142278","0.0-2.0-1.7","ly1","[""L""]","","","","","","null","key","null","null","16.671683333333444","912","513","1","0","0","0","1","","",""
"","psychophysics","26","143288","0.0-2.0-2.7-0.7","ly1","[""L""]","","","","","","null","key","null","null","16.67179661016947","912","513","1","0","0","0","1","","",""
"","psychophysics","27","148928","0.0-2.0-0.8","ly1","[""L""]","","","","","","4935","key","z","z","16.67191124260355","912","513","1","1","0","1","1","true","",""
"","psychophysics","28","149935","0.0-2.0-1.8","ly1","[""L""]","","","","","","null","key","null","null","16.673203389830217","912","513","1","1","0","1","1","","",""
"","psychophysics","29","150945","0.0-2.0-2.8-0.8","ly1","[""L""]","","","","","","null","key","null","null","16.672983333333104","912","513","1","1","0","1","1","","",""
"","psychophysics","30","154232","0.0-2.0-0.9","ly1","[""L""]","","","","","","2582","key","m","m","16.671862244897948","912","513","1","0","0","0","0","false","",""
"","psychophysics","31","155240","0.0-2.0-1.9","ly1","[""L""]","","","","","","null","key","null","null","16.671457627118304","912","513","1","0","0","0","0","","",""
"","psychophysics","32","156246","0.0-2.0-3.9-0.9","ly1","[""L""]","","","","","","null","key","null","null","16.673416666667134","912","513","1","0","0","0","0","","",""
"","psychophysics","33","161518","0.0-2.0-0.10","ly1","[""L""]","","","","","","4568","key","m","m","16.67204444444441","912","513","2","0","1","1","1","true","",""
"","psychophysics","34","162525","0.0-2.0-1.10","ly1","[""L""]","","","","","","null","key","null","null","16.67228813559336","912","513","2","0","1","1","1","","",""
"","psychophysics","35","163535","0.0-2.0-2.10-0.10","ly1","[""L""]","","","","","","null","key","null","null","16.671283333333363","912","513","2","0","1","1","1","","",""
"","psychophysics","36","167685","0.0-2.0-0.11","ly1","[""L""]","","","","","","3444","key","z","z","16.671221774193505","912","513","1","0","1","1","1","true","",""
"","psychophysics","37","168688","0.0-2.0-1.11","ly1","[""L""]","","","","","","null","key","null","null","16.671694915254317","912","513","1","0","1","1","1","","",""
"","psychophysics","38","169690","0.0-2.0-2.11-0.11","ly1","[""L""]","","","","","","null","key","null","null","16.671932203389833","912","513","1","0","1","1","1","","",""
"","psychophysics","39","172757","0.0-2.0-0.12","ly1","[""L""]","","","","","","2364","key","z","z","16.67189617486352","912","513","1","1","0","1","1","true","",""
"","psychophysics","40","173760","0.0-2.0-1.12","ly1","[""L""]","","","","","","null","key","null","null","16.672864406779546","912","513","1","1","0","1","1","","",""
"","psychophysics","41","174770","0.0-2.0-2.12-0.12","ly1","[""L""]","","","","","","null","key","null","null","16.672133333333477","912","513","1","1","0","1","1","","",""
"","psychophysics","42","176574","0.0-2.0-0.13","ly1","[""L""]","","","","","","1099","key","m","m","16.672158878504693","912","513","2","1","1","1","1","true","",""
"","psychophysics","43","177581","0.0-2.0-1.13","ly1","[""L""]","","","","","","null","key","null","null","16.67081355932218","912","513","2","1","1","1","1","","",""
"","psychophysics","44","178592","0.0-2.0-2.13-0.13","ly1","[""L""]","","","","","","null","key","null","null","16.672066666666556","912","513","2","1","1","1","1","","",""
"","psychophysics","45","181014","0.0-2.0-0.14","ly1","[""L""]","","","","","","1718","key","m","m","16.672055555555644","912","513","1","0","0","0","0","false","",""
"","psychophysics","46","182022","0.0-2.0-1.14","ly1","[""L""]","","","","","","null","key","null","null","16.673066666667","912","513","1","0","0","0","0","","",""
"","psychophysics","47","183032","0.0-2.0-3.14-0.14","ly1","[""L""]","","","","","","null","key","null","null","16.67132203389843","912","513","1","0","0","0","0","","",""
"","psychophysics","48","188198","0.0-2.0-0.15","ly1","[""L""]","","","","","","4461","key","z","z","16.67200647249189","912","513","1","0","0","0","1","true","",""
"","psychophysics","49","189205","0.0-2.0-1.15","ly1","[""L""]","","","","","","null","key","null","null","16.670249999999943","912","513","1","0","0","0","1","","",""
"","psychophysics","50","190211","0.0-2.0-2.15-0.15","ly1","[""L""]","","","","","","null","key","null","null","16.673338983050584","912","513","1","0","0","0","1","","",""
"","psychophysics","51","194373","0.0-2.0-0.16","ly1","[""L""]","","","","","","3459","key","m","m","16.671654618473887","912","513","1","0","0","1","0","false","",""
"","psychophysics","52","195376","0.0-2.0-1.16","ly1","[""L""]","","","","","","null","key","null","null","16.669745762711607","912","513","1","0","0","1","0","","",""
"","psychophysics","53","196380","0.0-2.0-3.16-0.16","ly1","[""L""]","","","","","","null","key","null","null","16.67337288135629","912","513","1","0","0","1","0","","",""
"","psychophysics","54","198684","0.0-2.0-0.17","ly1","[""L""]","","","","","","1600","key","z","z","16.670948905109583","912","513","2","0","0","0","0","false","",""
"","psychophysics","55","199686","0.0-2.0-1.17","ly1","[""L""]","","","","","","null","key","null","null","16.672000000000263","912","513","2","0","0","0","0","","",""
"","psychophysics","56","200690","0.0-2.0-3.17-0.17","ly1","[""L""]","","","","","","null","key","null","null","16.671966101695048","912","513","2","0","0","0","0","","",""
"","psychophysics","57","202909","0.0-2.0-0.18","ly1","[""L""]","","","","","","1517","key","z","z","16.671947368421097","912","513","2","0","0","0","0","false","",""
"","psychophysics","58","203911","0.0-2.0-1.18","ly1","[""L""]","","","","","","null","key","null","null","16.671355932203646","912","513","2","0","0","0","0","","",""
"","psychophysics","59","204913","0.0-2.0-3.18-0.18","ly1","[""L""]","","","","","","null","key","null","null","16.67189830508511","912","513","2","0","0","0","0","","",""
"","psychophysics","60","207100","0.0-2.0-0.19","ly1","[""L""]","","","","","","1485","key","z","z","16.67173076923086","912","513","1","1","1","1","1","true","",""
"","psychophysics","61","208103","0.0-2.0-1.19","ly1","[""L""]","","","","","","null","key","null","null","16.671694915254317","912","513","1","1","1","1","1","","",""
"","psychophysics","62","209105","0.0-2.0-2.19-0.19","ly1","[""L""]","","","","","","null","key","null","null","16.67179661016947","912","513","1","1","1","1","1","","",""
"","psychophysics","63","212188","0.0-2.0-0.20","ly1","[""L""]","","","","","","2381","key","m","m","16.671853260869483","912","513","2","0","0","0","1","true","",""
"","psychophysics","64","213192","0.0-2.0-1.20","ly1","[""L""]","","","","","","null","key","null","null","16.671830508474685","912","513","2","0","0","0","1","","",""
"","psychophysics","65","214194","0.0-2.0-2.20-0.20","ly1","[""L""]","","","","","","null","key","null","null","16.672135593220137","912","513","2","0","0","0","1","","",""
"","psychophysics","66","218117","0.0-2.0-0.21","ly1","[""L""]","","","","","","3221","key","z","z","16.6717744680851","912","513","1","0","0","1","1","true","",""
"","psychophysics","67","219119","0.0-2.0-1.21","ly1","[""L""]","","","","","","null","key","null","null","16.67179661016947","912","513","1","0","0","1","1","","",""
"","psychophysics","68","220123","0.0-2.0-2.21-0.21","ly1","[""L""]","","","","","","null","key","null","null","16.671406779660728","912","513","1","0","0","1","1","","",""
"","psychophysics","69","225108","0.0-2.0-0.22","ly1","[""L""]","","","","","","4283","key","m","m","16.67183557046988","912","513","1","1","1","0","1","false","",""
"","psychophysics","70","226111","0.0-2.0-1.22","ly1","[""L""]","","","","","","null","key","null","null","16.671779661016615","912","513","1","1","1","0","1","","",""
"","psychophysics","71","227115","0.0-2.0-3.22-0.22","ly1","[""L""]","","","","","","null","key","null","null","16.671677966101463","912","513","1","1","1","0","1","","",""
"","psychophysics","72","230094","0.0-2.0-0.23","ly1","[""L""]","","","","","","2278","key","m","m","16.67236516853939","912","513","1","0","1","0","0","false","",""
"","psychophysics","73","231102","0.0-2.0-1.23","ly1","[""L""]","","","","","","null","key","null","null","16.672833333333255","912","513","1","0","1","0","0","","",""
"","psychophysics","74","232112","0.0-2.0-3.23-0.23","ly1","[""L""]","","","","","","null","key","null","null","16.672711864406818","912","513","1","0","1","0","0","","",""
"","psychophysics","75","235094","0.0-2.0-0.24","ly1","[""L""]","","","","","","2277","key","m","m","16.672033707865022","912","513","2","0","1","0","1","true","",""
"","psychophysics","76","236102","0.0-2.0-1.24","ly1","[""L""]","","","","","","null","key","null","null","16.67310169491556","912","513","2","0","1","0","1","","",""
"","psychophysics","77","237112","0.0-2.0-2.24-0.24","ly1","[""L""]","","","","","","null","key","null","null","16.67116666666649","912","513","2","0","1","0","1","","",""
"","psychophysics","78","240804","0.0-2.0-0.25","ly1","[""L""]","","","","","","2988","key","m","m","16.671696832579084","912","513","1","1","0","0","1","false","",""
"","psychophysics","79","241808","0.0-2.0-1.25","ly1","[""L""]","","","","","","null","key","null","null","16.67340677966101","912","513","1","1","0","0","1","","",""
"","psychophysics","80","242816","0.0-2.0-3.25-0.25","ly1","[""L""]","","","","","","null","key","null","null","16.671915254236982","912","513","1","1","0","0","1","","",""
"","psychophysics","81","245813","0.0-2.0-0.26","ly1","[""L""]","","","","","","2293","key","z","z","16.67218435754188","912","513","2","0","0","0","1","false","",""
"","psychophysics","82","246821","0.0-2.0-1.26","ly1","[""L""]","","","","","","null","key","null","null","16.67147457627116","912","513","2","0","0","0","1","","",""
"","psychophysics","83","247827","0.0-2.0-3.26-0.26","ly1","[""L""]","","","","","","null","key","null","null","16.67378333333327","912","513","2","0","0","0","1","","",""
"","psychophysics","84","250197","0.0-2.0-0.27","ly1","[""L""]","","","","","","1665","key","m","m","16.67163829787235","912","513","2","1","1","1","1","true","",""
"","psychophysics","85","251205","0.0-2.0-1.27","ly1","[""L""]","","","","","","null","key","null","null","16.67208474576256","912","513","2","1","1","1","1","","",""
"","psychophysics","86","252223","0.0-2.0-2.27-0.27","ly1","[""L""]","","","","","","null","key","null","null","16.673099999999977","912","513","2","1","1","1","1","","",""
"","psychophysics","87","254826","0.0-2.0-0.28","ly1","[""L""]","","","","","","1898","key","z","z","16.671714285714213","912","513","1","0","1","1","1","true","",""
"","psychophysics","88","255832","0.0-2.0-1.28","ly1","[""L""]","","","","","","null","key","null","null","16.70863333333303","912","513","1","0","1","1","1","","",""
"","psychophysics","89","256837","0.0-2.0-2.28-0.28","ly1","[""L""]","","","","","","null","key","null","null","16.67306779660985","912","513","1","0","1","1","1","","",""
"","psychophysics","90","260341","0.0-2.0-0.29","ly1","[""L""]","","","","","","2800","key","z","z","16.672138755980786","912","513","2","1","0","0","1","false","",""
"","psychophysics","91","261351","0.0-2.0-1.29","ly1","[""L""]","","","","","","null","key","null","null","16.672216666666888","912","513","2","1","0","0","1","","",""
"","psychophysics","92","262360","0.0-2.0-3.29-0.29","ly1","[""L""]","","","","","","null","key","null","null","16.671915254236982","912","513","2","1","0","0","1","","",""
"","psychophysics","93","266286","0.0-2.0-0.30","ly1","[""L""]","","","","","","3221","key","m","m","16.671753191489458","912","513","2","0","0","0","1","true","",""
"","psychophysics","94","267293","0.0-2.0-1.30","ly1","[""L""]","","","","","","null","key","null","null","16.67132203389843","912","513","2","0","0","0","1","","",""
"","psychophysics","95","268302","0.0-2.0-2.30-0.30","ly1","[""L""]","","","","","","null","key","null","null","16.67296666666613","912","513","2","0","0","0","1","","",""
"","psychophysics","96","271053","0.0-2.0-0.31","ly1","[""L""]","","","","","","2048","key","m","m","16.67201829268299","912","513","2","1","0","1","1","true","",""
"","psychophysics","97","272060","0.0-2.0-1.31","ly1","[""L""]","","","","","","null","key","null","null","16.672440677966087","912","513","2","1","0","1","1","","",""
"","psychophysics","98","273070","0.0-2.0-2.31-0.31","ly1","[""L""]","","","","","","null","key","null","null","16.672283333333326","912","513","2","1","0","1","1","","",""
"","psychophysics","99","275013","0.0-2.0-0.32","ly1","[""L""]","","","","","","1238","key","z","z","16.67145217391308","912","513","1","1","0","1","1","true","",""
"","psychophysics","100","276017","0.0-2.0-1.32","ly1","[""L""]","","","","","","null","key","null","null","16.672499999999612","912","513","1","1","0","1","1","","",""
"","psychophysics","101","277023","0.0-2.0-2.32-0.32","ly1","[""L""]","","","","","","null","key","null","null","16.673016949152274","912","513","1","1","0","1","1","","",""
"","psychophysics","102","280166","0.0-2.0-0.33","ly1","[""L""]","","","","","","2439","key","m","m","16.67214973262022","912","513","2","1","1","1","1","true","",""
"","psychophysics","103","281177","0.0-2.0-1.33","ly1","[""L""]","","","","","","null","key","null","null","16.672666666666434","912","513","2","1","1","1","1","","",""
"","psychophysics","104","282186","0.0-2.0-2.33-0.33","ly1","[""L""]","","","","","","null","key","null","null","16.67273333333336","912","513","2","1","1","1","1","","",""
"","psychophysics","105","285588","0.0-2.0-0.34","ly1","[""L""]","","","","","","2697","key","m","m","16.671581280788203","912","513","2","0","0","0","1","true","",""
"","psychophysics","106","286592","0.0-2.0-1.34","ly1","[""L""]","","","","","","null","key","null","null","16.673135593220774","912","513","2","0","0","0","1","","",""
"","psychophysics","107","287600","0.0-2.0-2.34-0.34","ly1","[""L""]","","","","","","null","key","null","null","16.671491525424013","912","513","2","0","0","0","1","","",""
"","psychophysics","108","290684","0.0-2.0-0.35","ly1","[""L""]","","","","","","2379","key","m","m","16.671423913043565","912","513","1","0","0","0","1","false","",""
"","psychophysics","109","291688","0.0-2.0-1.35","ly1","[""L""]","","","","","","null","key","null","null","16.671833333333293","912","513","1","0","0","0","1","","",""
"","psychophysics","110","292692","0.0-2.0-3.35-0.35","ly1","[""L""]","","","","","","null","key","null","null","16.671881355932257","912","513","1","0","0","0","1","","",""
"","psychophysics","111","294508","0.0-2.0-0.36","ly1","[""L""]","","","","","","1114","key","m","m","16.67176851851885","912","513","2","1","1","1","1","true","",""
"","psychophysics","112","295511","0.0-2.0-1.36","ly1","[""L""]","","","","","","null","key","null","null","16.671576271186805","912","513","2","1","1","1","1","","",""
"","psychophysics","113","296514","0.0-2.0-2.36-0.36","ly1","[""L""]","","","","","","null","key","null","null","16.671847457627536","912","513","2","1","1","1","1","","",""
"","psychophysics","114","298300","0.0-2.0-0.37","ly1","[""L""]","","","","","","1083","key","z","z","16.671943396226645","912","513","1","0","0","1","1","true","",""
"","psychophysics","115","299304","0.0-2.0-1.37","ly1","[""L""]","","","","","","null","key","null","null","16.67179661016947","912","513","1","0","0","1","1","","",""
"","psychophysics","116","300308","0.0-2.0-2.37-0.37","ly1","[""L""]","","","","","","null","key","null","null","16.671883333333728","912","513","1","0","0","1","1","","",""
"","psychophysics","117","302492","0.0-2.0-0.38","ly1","[""L""]","","","","","","1482","key","z","z","16.67176923076891","912","513","1","1","0","1","0","true","",""
"","psychophysics","118","303495","0.0-2.0-1.38","ly1","[""L""]","","","","","","null","key","null","null","16.671915254236982","912","513","1","1","0","1","0","","",""
"","psychophysics","119","304497","0.0-2.0-2.38-0.38","ly1","[""L""]","","","","","","null","key","null","null","16.671881355932257","912","513","1","1","0","1","0","","",""
"","psychophysics","120","306724","0.0-2.0-0.39","ly1","[""L""]","","","","","","1526","key","m","m","16.671819548872282","912","513","2","1","0","1","1","true","",""
"","psychophysics","121","307728","0.0-2.0-1.39","ly1","[""L""]","","","","","","null","key","null","null","16.671491525424013","912","513","2","1","0","1","1","","",""
"","psychophysics","122","308732","0.0-2.0-2.39-0.39","ly1","[""L""]","","","","","","null","key","null","null","16.6720677966102","912","513","2","1","0","1","1","","",""
"","psychophysics","123","311605","0.0-2.0-0.40","ly1","[""L""]","","","","","","2171","key","z","z","16.672356725146187","912","513","1","0","0","0","1","true","",""
"","psychophysics","124","312613","0.0-2.0-1.40","ly1","[""L""]","","","","","","null","key","null","null","16.67294999999964","912","513","1","0","0","0","1","","",""
"","psychophysics","125","313622","0.0-2.0-2.40-0.40","ly1","[""L""]","","","","","","null","key","null","null","16.67179661016947","912","513","1","0","0","0","1","","",""
"","psychophysics","126","316908","0.0-2.0-0.41","ly1","[""L""]","","","","","","2583","key","z","z","16.757369230769406","912","513","1","1","0","1","0","true","",""
"","psychophysics","127","317912","0.0-2.0-1.41","ly1","[""L""]","","","","","","null","key","null","null","16.67324999999934","912","513","1","1","0","1","0","","",""
"","psychophysics","128","318918","0.0-2.0-2.41-0.41","ly1","[""L""]","","","","","","null","key","null","null","16.673525423729018","912","513","1","1","0","1","0","","",""
"","psychophysics","129","320900","0.0-2.0-0.42","ly1","[""L""]","","","","","","1279","key","z","z","16.67050847457623","912","513","1","1","0","1","1","true","",""
"","psychophysics","130","321904","0.0-2.0-1.42","ly1","[""L""]","","","","","","null","key","null","null","16.67277966101725","912","513","1","1","0","1","1","","",""
"","psychophysics","131","322912","0.0-2.0-2.42-0.42","ly1","[""L""]","","","","","","null","key","null","null","16.66968333333401","912","513","1","1","0","1","1","","",""
"","psychophysics","132","324982","0.0-2.0-0.43","ly1","[""L""]","","","","","","1368","key","m","m","16.67290243902433","912","513","2","0","0","1","1","true","",""
"","psychophysics","133","325989","0.0-2.0-1.43","ly1","[""L""]","","","","","","null","key","null","null","16.671559322034444","912","513","2","0","0","1","1","","",""
"","psychophysics","134","326995","0.0-2.0-2.43-0.43","ly1","[""L""]","","","","","","null","key","null","null","16.673813559322113","912","513","2","0","0","1","1","","",""
"","psychophysics","135","329685","0.0-2.0-0.44","ly1","[""L""]","","","","","","1985","key","m","m","16.66917391304362","912","513","2","0","0","1","1","true","",""
"","psychophysics","136","330693","0.0-2.0-1.44","ly1","[""L""]","","","","","","null","key","null","null","16.67254237288124","912","513","2","0","0","1","1","","",""
"","psychophysics","137","331701","0.0-2.0-2.44-0.44","ly1","[""L""]","","","","","","null","key","null","null","16.66773333333258","912","513","2","0","0","1","1","","",""
"","psychophysics","138","333868","0.0-2.0-0.45","ly1","[""L""]","","","","","","1463","key","m","m","16.671186046511504","912","513","2","1","1","1","1","true","",""
"","psychophysics","139","334872","0.0-2.0-1.45","ly1","[""L""]","","","","","","null","key","null","null","16.670864406779756","912","513","2","1","1","1","1","","",""
"","psychophysics","140","335885","0.0-2.0-2.45-0.45","ly1","[""L""]","","","","","","null","key","null","null","16.672299999999815","912","513","2","1","1","1","1","","",""
"","psychophysics","141","337605","0.0-2.0-0.46","ly1","[""L""]","","","","","","1014","key","z","z","16.671950980392058","912","513","1","1","0","1","1","true","",""
"","psychophysics","142","338612","0.0-2.0-1.46","ly1","[""L""]","","","","","","null","key","null","null","16.670610169491383","912","513","1","1","0","1","1","","",""
"","psychophysics","143","339617","0.0-2.0-2.46-0.46","ly1","[""L""]","","","","","","null","key","null","null","16.671866666667242","912","513","1","1","0","1","1","","",""
"","psychophysics","144","341421","0.0-2.0-0.47","ly1","[""L""]","","","","","","1101","key","m","m","16.830160377358794","912","513","2","0","1","0","1","true","",""
"","psychophysics","145","342429","0.0-2.0-1.47","ly1","[""L""]","","","","","","null","key","null","null","16.67203389830449","912","513","2","0","1","0","1","","",""
"","psychophysics","146","343440","0.0-2.0-2.47-0.47","ly1","[""L""]","","","","","","null","key","null","null","16.67296666666613","912","513","2","0","1","0","1","","",""
"","psychophysics","147","345845","0.0-2.0-0.48","ly1","[""L""]","","","","","","1701","key","m","m","16.671783216783233","912","513","1","0","0","1","0","false","",""
"","psychophysics","148","346853","0.0-2.0-1.48","ly1","[""L""]","","","","","","null","key","null","null","16.960586206896174","912","513","1","0","0","1","0","","",""
"","psychophysics","149","347862","0.0-2.0-3.48-0.48","ly1","[""L""]","","","","","","null","key","null","null","16.673233333333823","912","513","1","0","0","1","0","","",""
"","psychophysics","150","349972","0.0-2.0-0.49","ly1","[""L""]","","","","","","1407","key","z","z","16.671753968253995","912","513","1","1","0","1","1","true","",""
"","psychophysics","151","350977","0.0-2.0-1.49","ly1","[""L""]","","","","","","null","key","null","null","16.673847457626835","912","513","1","1","0","1","1","","",""
"","psychophysics","152","351986","0.0-2.0-2.49-0.49","ly1","[""L""]","","","","","","null","key","null","null","16.67296610169519","912","513","1","1","0","1","1","","",""
"","psychophysics","153","354277","0.0-2.0-0.50","ly1","[""L""]","","","","","","1587","key","m","m","16.67186131386892","912","513","2","1","1","0","1","true","",""
"","psychophysics","154","355285","0.0-2.0-1.50","ly1","[""L""]","","","","","","null","key","null","null","16.671949152541703","912","513","2","1","1","0","1","","",""
"","psychophysics","155","356291","0.0-2.0-2.50-0.50","ly1","[""L""]","","","","","","null","key","null","null","16.674033333333014","912","513","2","1","1","0","1","","",""
"","psychophysics","156","358277","0.0-2.0-0.51","ly1","[""L""]","","","","","","1282","key","z","z","16.671110169491456","912","513","2","0","0","0","0","false","",""
"","psychophysics","157","359284","0.0-2.0-1.51","ly1","[""L""]","","","","","","null","key","null","null","16.673474576270948","912","513","2","0","0","0","0","","",""
"","psychophysics","158","360296","0.0-2.0-3.51-0.51","ly1","[""L""]","","","","","","null","key","null","null","16.67273333333336","912","513","2","0","0","0","0","","",""
"","psychophysics","159","363213","0.0-2.0-0.52","ly1","[""L""]","","","","","","2213","key","z","z","16.67159770114947","912","513","1","0","1","0","1","true","",""
"","psychophysics","160","364220","0.0-2.0-1.52","ly1","[""L""]","","","","","","null","key","null","null","16.670847457627396","912","513","1","0","1","0","1","","",""
"","psychophysics","161","365229","0.0-2.0-2.52-0.52","ly1","[""L""]","","","","","","null","key","null","null","16.671716666666907","912","513","1","0","1","0","1","","",""
"","psychophysics","162","367510","0.0-2.0-0.53","ly1","[""L""]","","","","","","1577","key","z","z","16.67231111111145","912","513","2","1","1","0","0","false","",""
"","psychophysics","163","368518","0.0-2.0-1.53","ly1","[""L""]","","","","","","null","key","null","null","16.671933333333193","912","513","2","1","1","0","0","","",""
"","psychophysics","164","369529","0.0-2.0-3.53-0.53","ly1","[""L""]","","","","","","null","key","null","null","16.67223333333386","912","513","2","1","1","0","0","","",""
"","psychophysics","165","371847","0.0-2.0-0.54","ly1","[""L""]","","","","","","1614","key","m","m","16.672101449275363","912","513","2","0","0","0","1","true","",""
"","psychophysics","166","372854","0.0-2.0-1.54","ly1","[""L""]","","","","","","null","key","null","null","16.670796610169326","912","513","2","0","0","0","1","","",""
"","psychophysics","167","373865","0.0-2.0-2.54-0.54","ly1","[""L""]","","","","","","null","key","null","null","16.672199999999915","912","513","2","0","0","0","1","","",""
"","psychophysics","168","375869","0.0-2.0-0.55","ly1","[""L""]","","","","","","1300","key","m","m","16.672109243697722","912","513","2","0","1","0","1","true","",""
"","psychophysics","169","376873","0.0-2.0-1.55","ly1","[""L""]","","","","","","null","key","null","null","16.67279661016961","912","513","2","0","1","0","1","","",""
"","psychophysics","170","377883","0.0-2.0-2.55-0.55","ly1","[""L""]","","","","","","null","key","null","null","16.672366666666736","912","513","2","0","1","0","1","","",""
"","psychophysics","171","380133","0.0-2.0-0.56","ly1","[""L""]","","","","","","1546","key","m","m","16.671843283582103","912","513","2","0","0","1","1","true","",""
"","psychophysics","172","381141","0.0-2.0-1.56","ly1","[""L""]","","","","","","null","key","null","null","16.67052542372958","912","513","2","0","0","1","1","","",""
"","psychophysics","173","382143","0.0-2.0-2.56-0.56","ly1","[""L""]","","","","","","null","key","null","null","16.671830508475175","912","513","2","0","0","1","1","","",""
"","psychophysics","174","384820","0.0-2.0-0.57","ly1","[""L""]","","","","","","1976","key","z","z","16.671843749999972","912","513","1","1","0","1","1","true","",""
"","psychophysics","175","385823","0.0-2.0-1.57","ly1","[""L""]","","","","","","null","key","null","null","16.67176271186376","912","513","1","1","0","1","1","","",""
"","psychophysics","176","386826","0.0-2.0-2.57-0.57","ly1","[""L""]","","","","","","null","key","null","null","16.671762711864748","912","513","1","1","0","1","1","","",""
"","psychophysics","177","390156","0.0-2.0-0.58","ly1","[""L""]","","","","","","2628","key","m","m","16.67189447236178","912","513","1","0","0","1","0","false","",""
"","psychophysics","178","391159","0.0-2.0-1.58","ly1","[""L""]","","","","","","null","key","null","null","16.67189830508462","912","513","1","0","0","1","0","","",""
"","psychophysics","179","392161","0.0-2.0-3.58-0.58","ly1","[""L""]","","","","","","null","key","null","null","16.671440677965943","912","513","1","0","0","1","0","","",""
"","psychophysics","180","399412","0.0-2.0-0.59","ly1","[""L""]","","","","","","6550","key","z","z","16.671852534562284","912","513","2","0","1","1","0","false","",""
"","psychophysics","181","400416","0.0-2.0-1.59","ly1","[""L""]","","","","","","null","key","null","null","16.67179661016947","912","513","2","0","1","1","0","","",""
"","psychophysics","182","401419","0.0-2.0-3.59-0.59","ly1","[""L""]","","","","","","null","key","null","null","16.671949152542688","912","513","2","0","1","1","0","","",""
"","psychophysics","183","405348","0.0-2.0-0.60","ly1","[""L""]","","","","","","3228","key","m","m","16.671829787234064","912","513","2","0","0","0","1","true","",""
"","psychophysics","184","406352","0.0-2.0-1.60","ly1","[""L""]","","","","","","null","key","null","null","16.67189830508462","912","513","2","0","0","0","1","","",""
"","psychophysics","185","407356","0.0-2.0-2.60-0.60","ly1","[""L""]","","","","","","null","key","null","null","16.67198333333363","912","513","2","0","0","0","1","","",""
"","psychophysics","186","411012","0.0-2.0-0.61","ly1","[""L""]","","","","","","2955","key","z","z","16.671811926605578","912","513","1","1","1","1","1","true","",""
"","psychophysics","187","412015","0.0-2.0-1.61","ly1","[""L""]","","","","","","null","key","null","null","16.67183050847419","912","513","1","1","1","1","1","","",""
"","psychophysics","188","413019","0.0-2.0-2.61-0.61","ly1","[""L""]","","","","","","null","key","null","null","16.674288135593148","912","513","1","1","1","1","1","","",""
"","psychophysics","189","414717","0.0-2.0-0.62","ly1","[""L""]","","","","","","995","key","m","m","16.67241584158406","912","513","2","0","1","1","1","true","",""
"","psychophysics","190","415724","0.0-2.0-1.62","ly1","[""L""]","","","","","","null","key","null","null","16.671423728813583","912","513","2","0","1","1","1","","",""
"","psychophysics","191","416733","0.0-2.0-2.62-0.62","ly1","[""L""]","","","","","","null","key","null","null","16.671066666667077","912","513","2","0","1","1","1","","",""
"","psychophysics","192","419590","0.0-2.0-0.63","ly1","[""L""]","","","","","","2153","key","z","z","16.672570588235292","912","513","1","1","1","1","1","true","",""
"","psychophysics","193","420599","0.0-2.0-1.63","ly1","[""L""]","","","","","","null","key","null","null","16.672566666666533","912","513","1","1","1","1","1","","",""
"","psychophysics","194","421609","0.0-2.0-2.63-0.63","ly1","[""L""]","","","","","","null","key","null","null","16.670830508475035","912","513","1","1","1","1","1","","",""
"","psychophysics","195","425973","0.0-2.0-0.64","ly1","[""L""]","","","","","","3659","key","z","z","16.671835249042097","912","513","1","1","1","1","0","true","",""
"","psychophysics","196","426982","0.0-2.0-1.64","ly1","[""L""]","","","","","","null","key","null","null","16.67168333333393","912","513","1","1","1","1","0","","",""
"","psychophysics","197","427991","0.0-2.0-2.64-0.64","ly1","[""L""]","","","","","","null","key","null","null","16.671728813560023","912","513","1","1","1","1","0","","",""
"","psychophysics","198","430165","0.0-2.0-0.65","ly1","[""L""]","","","","","","1470","key","m","m","16.672223076923267","912","513","1","1","1","1","0","false","",""
"","psychophysics","199","431172","0.0-2.0-1.65","ly1","[""L""]","","","","","","null","key","null","null","16.671966101695048","912","513","1","1","1","1","0","","",""
"","psychophysics","200","432183","0.0-2.0-3.65-0.65","ly1","[""L""]","","","","","","null","key","null","null","16.671399999999753","912","513","1","1","1","1","0","","",""
"","psychophysics","201","434037","0.0-2.0-0.66","ly1","[""L""]","","","","","","1150","key","z","z","16.67190909090886","912","513","1","0","0","1","1","true","",""
"","psychophysics","202","435044","0.0-2.0-1.66","ly1","[""L""]","","","","","","null","key","null","null","16.67199999999977","912","513","1","0","0","1","1","","",""
"","psychophysics","203","436054","0.0-2.0-2.66-0.66","ly1","[""L""]","","","","","","null","key","null","null","16.67021666666648","912","513","1","0","0","1","1","","",""
"","psychophysics","204","438149","0.0-2.0-0.67","ly1","[""L""]","","","","","","1392","key","m","m","16.671919999999925","912","513","2","0","0","1","1","true","",""
"","psychophysics","205","439151","0.0-2.0-1.67","ly1","[""L""]","","","","","","null","key","null","null","16.671474576271653","912","513","2","0","0","1","1","","",""
"","psychophysics","206","440155","0.0-2.0-2.67-0.67","ly1","[""L""]","","","","","","null","key","null","null","16.95891379310292","912","513","2","0","0","1","1","","",""
"","psychophysics","207","441836","0.0-2.0-0.68","ly1","[""L""]","","","","","","980","key","z","z","16.671440000000292","912","513","1","0","0","1","1","true","",""
"","psychophysics","208","442839","0.0-2.0-1.68","ly1","[""L""]","","","","","","null","key","null","null","16.67198305084741","912","513","1","0","0","1","1","","",""
"","psychophysics","209","443842","0.0-2.0-2.68-0.68","ly1","[""L""]","","","","","","null","key","null","null","16.671576271186805","912","513","1","0","0","1","1","","",""
"","psychophysics","210","446852","0.0-2.0-0.69","ly1","[""L""]","","","","","","2309","key","m","m","16.671700000000097","912","513","2","1","1","1","0","true","",""
"","psychophysics","211","447855","0.0-2.0-1.69","ly1","[""L""]","","","","","","null","key","null","null","16.671966101695048","912","513","2","1","1","1","0","","",""
"","psychophysics","212","448858","0.0-2.0-2.69-0.69","ly1","[""L""]","","","","","","null","key","null","null","16.671559322034444","912","513","2","1","1","1","0","","",""
"","psychophysics","213","450373","0.0-2.0-0.70","ly1","[""L""]","","","","","","814","key","z","z","16.673422222222307","912","513","1","0","0","1","1","true","",""
"","psychophysics","214","451382","0.0-2.0-1.70","ly1","[""L""]","","","","","","null","key","null","null","16.669389830508578","912","513","1","0","0","1","1","","",""
"","psychophysics","215","452385","0.0-2.0-2.70-0.70","ly1","[""L""]","","","","","","null","key","null","null","16.671966101695048","912","513","1","0","0","1","1","","",""
"","psychophysics","216","453901","0.0-2.0-0.71","ly1","[""L""]","","","","","","813","key","m","m","16.673511111110887","912","513","2","0","0","1","1","true","",""
"","psychophysics","217","454910","0.0-2.0-1.71","ly1","[""L""]","","","","","","null","key","null","null","16.670516666666177","912","513","2","0","0","1","1","","",""
"","psychophysics","218","455913","0.0-2.0-2.71-0.71","ly1","[""L""]","","","","","","null","key","null","null","16.671864406778912","912","513","2","0","0","1","1","","",""
"","psychophysics","219","457541","0.0-2.0-0.72","ly1","[""L""]","","","","","","925","key","m","m","16.6731855670103","912","513","2","1","0","1","1","true","",""
"","psychophysics","220","458551","0.0-2.0-1.72","ly1","[""L""]","","","","","","null","key","null","null","16.672474576270808","912","513","2","1","0","1","1","","",""
"","psychophysics","221","459560","0.0-2.0-2.72-0.72","ly1","[""L""]","","","","","","null","key","null","null","16.67093333333323","912","513","2","1","0","1","1","","",""
"","psychophysics","222","462037","0.0-2.0-0.73","ly1","[""L""]","","","","","","1773","key","z","z","16.671816326530497","912","513","1","1","0","1","0","true","",""
"","psychophysics","223","463047","0.0-2.0-1.73","ly1","[""L""]","","","","","","null","key","null","null","16.67288333333369","912","513","1","1","0","1","0","","",""
"","psychophysics","224","464056","0.0-2.0-2.73-0.73","ly1","[""L""]","","","","","","null","key","null","null","16.67283050847433","912","513","1","1","0","1","0","","",""
"","psychophysics","225","466324","0.0-2.0-0.74","ly1","[""L""]","","","","","","1563","key","z","z","16.67073529411787","912","513","1","1","0","1","1","true","",""
"","psychophysics","226","467327","0.0-2.0-1.74","ly1","[""L""]","","","","","","null","key","null","null","16.6717457627114","912","513","1","1","0","1","1","","",""
"","psychophysics","227","468331","0.0-2.0-2.74-0.74","ly1","[""L""]","","","","","","null","key","null","null","16.674271186440787","912","513","1","1","0","1","1","","",""
"","psychophysics","228","470244","0.0-2.0-0.75","ly1","[""L""]","","","","","","1209","key","z","z","16.67171052631589","912","513","1","1","0","1","1","true","",""
"","psychophysics","229","471248","0.0-2.0-1.75","ly1","[""L""]","","","","","","null","key","null","null","16.671186440677573","912","513","1","1","0","1","1","","",""
"","psychophysics","230","472252","0.0-2.0-2.75-0.75","ly1","[""L""]","","","","","","null","key","null","null","16.6740169491534","912","513","1","1","0","1","1","","",""
"","psychophysics","231","474279","0.0-2.0-0.76","ly1","[""L""]","","","","","","1323","key","m","m","16.672462809917494","912","513","2","0","0","0","1","true","",""
"","psychophysics","232","475287","0.0-2.0-1.76","ly1","[""L""]","","","","","","null","key","null","null","16.67335593220344","912","513","2","0","0","0","1","","",""
"","psychophysics","233","476297","0.0-2.0-2.76-0.76","ly1","[""L""]","","","","","","null","key","null","null","16.6714333333337","912","513","2","0","0","0","1","","",""
"","psychophysics","234","479037","0.0-2.0-0.77","ly1","[""L""]","","","","","","2039","key","m","m","16.67236809815963","912","513","1","0","1","0","0","false","",""
"","psychophysics","235","480046","0.0-2.0-1.77","ly1","[""L""]","","","","","","null","key","null","null","16.67233333333279","912","513","1","0","1","0","0","","",""
"","psychophysics","236","481055","0.0-2.0-3.77-0.77","ly1","[""L""]","","","","","","null","key","null","null","16.670728813559883","912","513","1","0","1","0","0","","",""
"","psychophysics","237","484741","0.0-2.0-0.78","ly1","[""L""]","","","","","","2981","key","z","z","16.67214090909084","912","513","1","1","1","1","1","true","",""
"","psychophysics","238","485748","0.0-2.0-1.78","ly1","[""L""]","","","","","","null","key","null","null","16.67294999999964","912","513","1","1","1","1","1","","",""
"","psychophysics","239","486759","0.0-2.0-2.78-0.78","ly1","[""L""]","","","","","","null","key","null","null","16.670779661016965","912","513","1","1","1","1","1","","",""
"","psychophysics","240","491437","0.0-2.0-0.79","ly1","[""L""]","","","","","","3972","key","m","m","16.671896428571408","912","513","1","1","1","1","0","false","",""
"","psychophysics","241","492444","0.0-2.0-1.79","ly1","[""L""]","","","","","","null","key","null","null","16.67122033898328","912","513","1","1","1","1","0","","",""
"","psychophysics","242","493450","0.0-2.0-3.79-0.79","ly1","[""L""]","","","","","","null","key","null","null","16.672916666666666","912","513","1","1","1","1","0","","",""
"","psychophysics","243","496197","0.0-2.0-0.80","ly1","[""L""]","","","","","","2042","key","m","m","16.672018404907913","912","513","2","0","0","0","1","true","",""
"","psychophysics","244","497205","0.0-2.0-1.80","ly1","[""L""]","","","","","","null","key","null","null","16.67198333333363","912","513","2","0","0","0","1","","",""
"","psychophysics","245","498213","0.0-2.0-2.80-0.80","ly1","[""L""]","","","","","","null","key","null","null","16.67177966101711","912","513","2","0","0","0","1","","",""
"","psychophysics","246","500956","0.0-2.0-0.81","ly1","[""L""]","","","","","","2038","key","m","m","16.672274390244063","912","513","2","1","0","0","1","true","",""
"","psychophysics","247","501964","0.0-2.0-1.81","ly1","[""L""]","","","","","","null","key","null","null","16.670711864406535","912","513","2","1","0","0","1","","",""
"","psychophysics","248","502971","0.0-2.0-2.81-0.81","ly1","[""L""]","","","","","","null","key","null","null","16.673199999999877","912","513","2","1","0","0","1","","",""
"","psychophysics","249","505365","0.0-2.0-0.82","ly1","[""L""]","","","","","","1690","key","z","z","16.67225352112691","912","513","1","0","1","0","1","true","",""
"","psychophysics","250","506373","0.0-2.0-1.82","ly1","[""L""]","","","","","","null","key","null","null","16.672366666666736","912","513","1","0","1","0","1","","",""
"","psychophysics","251","507382","0.0-2.0-2.82-0.82","ly1","[""L""]","","","","","","null","key","null","null","16.67108474576242","912","513","1","0","1","0","1","","",""
"","psychophysics","252","509453","0.0-2.0-0.83","ly1","[""L""]","","","","","","1368","key","z","z","16.673073170731712","912","513","1","0","1","1","1","true","",""
"","psychophysics","253","510460","0.0-2.0-1.83","ly1","[""L""]","","","","","","null","key","null","null","16.671933333333193","912","513","1","0","1","1","1","","",""
"","psychophysics","254","511469","0.0-2.0-2.83-0.83","ly1","[""L""]","","","","","","null","key","null","null","16.67047457627151","912","513","1","0","1","1","1","","",""
"","psychophysics","255","513132","0.0-2.0-0.84","ly1","[""L""]","","","","","","960","key","z","z","16.67285858585871","912","513","2","0","1","1","0","false","",""
"","psychophysics","256","514141","0.0-2.0-1.84","ly1","[""L""]","","","","","","null","key","null","null","16.67270000000038","912","513","2","0","1","1","0","","",""
"","psychophysics","257","515157","0.0-2.0-3.84-0.84","ly1","[""L""]","","","","","","null","key","null","null","16.673000000000076","912","513","2","0","1","1","0","","",""
"","psychophysics","258","517286","0.0-2.0-0.85","ly1","[""L""]","","","","","","1424","key","m","m","16.671626984126984","912","513","2","1","1","1","1","true","",""
"","psychophysics","259","518295","0.0-2.0-1.85","ly1","[""L""]","","","","","","null","key","null","null","16.95367796610157","912","513","2","1","1","1","1","","",""
"","psychophysics","260","519303","0.0-2.0-2.85-0.85","ly1","[""L""]","","","","","","null","key","null","null","16.674338983051218","912","513","2","1","1","1","1","","",""
"","psychophysics","261","521204","0.0-2.0-0.86","ly1","[""L""]","","","","","","1193","key","m","m","16.67238938053081","912","513","1","1","1","0","0","false","",""
"","psychophysics","262","522216","0.0-2.0-1.86","ly1","[""L""]","","","","","","null","key","null","null","16.66876666666649","912","513","1","1","1","0","0","","",""
"","psychophysics","263","523226","0.0-2.0-3.86-0.86","ly1","[""L""]","","","","","","null","key","null","null","16.67280000000028","912","513","1","1","1","0","0","","",""
"","psychophysics","264","526299","0.0-2.0-0.87","ly1","[""L""]","","","","","","2370","key","z","z","16.671480874316906","912","513","1","1","0","1","1","true","",""
"","psychophysics","265","527301","0.0-2.0-1.87","ly1","[""L""]","","","","","","null","key","null","null","16.6709322033892","912","513","1","1","0","1","1","","",""
"","psychophysics","266","528306","0.0-2.0-2.87-0.87","ly1","[""L""]","","","","","","null","key","null","null","16.67181355932183","912","513","1","1","0","1","1","","",""
"","psychophysics","267","530172","0.0-2.0-0.88","ly1","[""L""]","","","","","","1164","key","z","z","16.67194594594604","912","513","1","0","0","1","1","true","",""
"","psychophysics","268","531176","0.0-2.0-1.88","ly1","[""L""]","","","","","","null","key","null","null","16.67320338982923","912","513","1","0","0","1","1","","",""
"","psychophysics","269","532186","0.0-2.0-2.88-0.88","ly1","[""L""]","","","","","","null","key","null","null","16.67013333333307","912","513","1","0","0","1","1","","",""
"","psychophysics","270","534036","0.0-2.0-0.89","ly1","[""L""]","","","","","","1149","key","z","z","16.672063636363866","912","513","1","1","0","1","1","true","",""
"","psychophysics","271","535041","0.0-2.0-1.89","ly1","[""L""]","","","","","","null","key","null","null","16.67281355932197","912","513","1","1","0","1","1","","",""
"","psychophysics","272","536052","0.0-2.0-2.89-0.89","ly1","[""L""]","","","","","","null","key","null","null","16.671366666666774","912","513","1","1","0","1","1","","",""
"","psychophysics","273","538268","0.0-2.0-0.90","ly1","[""L""]","","","","","","1512","key","z","z","16.671939393939365","912","513","1","1","1","0","1","true","",""
"","psychophysics","274","539276","0.0-2.0-1.90","ly1","[""L""]","","","","","","null","key","null","null","16.671949152542688","912","513","1","1","1","0","1","","",""
"","psychophysics","275","540287","0.0-2.0-2.90-0.90","ly1","[""L""]","","","","","","null","key","null","null","16.671216666667412","912","513","1","1","1","0","1","","",""
"","psychophysics","276","543357","0.0-2.0-0.91","ly1","[""L""]","","","","","","2366","key","m","m","16.671928961748574","912","513","2","0","0","0","1","true","",""
"","psychophysics","277","544366","0.0-2.0-1.91","ly1","[""L""]","","","","","","null","key","null","null","16.672749999999844","912","513","2","0","0","0","1","","",""
"","psychophysics","278","545375","0.0-2.0-2.91-0.91","ly1","[""L""]","","","","","","null","key","null","null","16.672050847456855","912","513","2","0","0","0","1","","",""
"","psychophysics","279","547093","0.0-2.0-0.92","ly1","[""L""]","","","","","","1014","key","z","z","16.672441176470944","912","513","1","0","0","1","1","true","",""
"","psychophysics","280","548108","0.0-2.0-1.92","ly1","[""L""]","","","","","","null","key","null","null","16.66479999999865","912","513","1","0","0","1","1","","",""
"","psychophysics","281","549118","0.0-2.0-2.92-0.92","ly1","[""L""]","","","","","","null","key","null","null","16.67166666666744","912","513","1","0","0","1","1","","",""
"","psychophysics","282","551452","0.0-2.0-0.93","ly1","[""L""]","","","","","","1630","key","m","m","16.671107913669797","912","513","2","1","1","1","1","true","",""
"","psychophysics","283","552457","0.0-2.0-1.93","ly1","[""L""]","","","","","","null","key","null","null","16.673118644068413","912","513","2","1","1","1","1","","",""
"","psychophysics","284","553467","0.0-2.0-2.93-0.93","ly1","[""L""]","","","","","","null","key","null","null","16.67254237288025","912","513","2","1","1","1","1","","",""
"","psychophysics","285","555916","0.0-2.0-0.94","ly1","[""L""]","","","","","","1745","key","m","m","16.671684931506793","912","513","1","0","0","1","0","false","",""
"","psychophysics","286","556922","0.0-2.0-1.94","ly1","[""L""]","","","","","","null","key","null","null","16.955813559322714","912","513","1","0","0","1","0","","",""
"","psychophysics","287","557931","0.0-2.0-3.94-0.94","ly1","[""L""]","","","","","","null","key","null","null","16.672644067798362","912","513","1","0","0","1","0","","",""
"","psychophysics","288","559732","0.0-2.0-0.95","ly1","[""L""]","","","","","","1097","key","z","z","16.671728971962615","912","513","2","0","1","0","0","false","",""
"","psychophysics","289","560738","0.0-2.0-1.95","ly1","[""L""]","","","","","","null","key","null","null","16.673783333333752","912","513","2","0","1","0","0","","",""
"","psychophysics","290","561746","0.0-2.0-3.95-0.95","ly1","[""L""]","","","","","","null","key","null","null","16.67103389830534","912","513","2","0","1","0","0","","",""
"","psychophysics","291","564853","0.0-2.0-0.96","ly1","[""L""]","","","","","","2402","key","m","m","16.762369565217142","912","513","1","0","0","0","1","false","",""
"","psychophysics","292","565861","0.0-2.0-1.96","ly1","[""L""]","","","","","","null","key","null","null","16.672633333333458","912","513","1","0","0","0","1","","",""
"","psychophysics","293","566870","0.0-2.0-3.96-0.96","ly1","[""L""]","","","","","","null","key","null","null","16.67177966101711","912","513","1","0","0","0","1","","",""
"","psychophysics","294","568941","0.0-2.0-0.97","ly1","[""L""]","","","","","","1365","key","z","z","16.807926829268293","912","513","2","0","1","1","0","false","",""
"","psychophysics","295","569950","0.0-2.0-1.97","ly1","[""L""]","","","","","","null","key","null","null","16.671932203389343","912","513","2","0","1","1","0","","",""
"","psychophysics","296","570968","0.0-2.0-3.97-0.97","ly1","[""L""]","","","","","","null","key","null","null","16.6728166666658","912","513","2","0","1","1","0","","",""
"","psychophysics","297","573509","0.0-2.0-0.98","ly1","[""L""]","","","","","","1834","key","z","z","16.672243421052514","912","513","1","0","1","1","1","true","",""
"","psychophysics","298","574517","0.0-2.0-1.98","ly1","[""L""]","","","","","","null","key","null","null","16.67184745762655","912","513","1","0","1","1","1","","",""
"","psychophysics","299","575527","0.0-2.0-2.98-0.98","ly1","[""L""]","","","","","","null","key","null","null","16.671833333334266","912","513","1","0","1","1","1","","",""
"","psychophysics","300","578805","0.0-2.0-0.99","ly1","[""L""]","","","","","","2574","key","z","z","16.672164102564327","912","513","1","0","1","1","1","true","",""
"","psychophysics","301","579813","0.0-2.0-1.99","ly1","[""L""]","","","","","","null","key","null","null","16.672649999998974","912","513","1","0","1","1","1","","",""
"","psychophysics","302","580823","0.0-2.0-2.99-0.99","ly1","[""L""]","","","","","","null","key","null","null","16.672372881356644","912","513","1","0","1","1","1","","",""
"","html-keyboard-response","303","587262","0.0-2.0-4.99-0.99","ly1","[""L""]","","","","","","6432","","","g","","","","","","","","","","<p>You have finished block 1 of 5.<p>You correctly predicted 73% of the races.<p>On the next screen, you will be given a 30 second break. Press the <b>g</b> key to start your break.",""
"","html-keyboard-response","304","588273","0.0-2.0-4.99-1.99-0.99","ly1","[""L""]","","","","","","null","","","null","","","","","","","","","","<p>The experiment will resume in 30 seconds. ",""
"","html-keyboard-response","305","589288","0.0-2.0-4.99-1.99-1.99","ly1","[""L""]","","","","","","null","","","null","","","","","","","","","","<p>The experiment will resume in 29 seconds. ",""
"","html-keyboard-response","306","590297","0.0-2.0-4.99-1.99-2.99","ly1","[""L""]","","","","","","null","","","null","","","","","","","","","","<p>The experiment will resume in 28 seconds. ",""
"","html-keyboard-response","307","591315","0.0-2.0-4.99-1.99-3.99","ly1","[""L""]","","","","","","null","","","null","","","","","","","","","","<p>The experiment will resume in 27 seconds. ",""
"","html-keyboard-response","308","592325","0.0-2.0-4.99-1.99-4.99","ly1","[""L""]","","","","","","null","","","null","","","","","","","","","","<p>The experiment will resume in 26 seconds. ",""
"","html-keyboard-response","309","593329","0.0-2.0-4.99-1.99-5.99","ly1","[""L""]","","","","","","null","","","null","","","","","","","","","","<p>The experiment will resume in 25 seconds. ",""
"","html-keyboard-response","310","594342","0.0-2.0-4.99-1.99-6.99","ly1","[""L""]","","","","","","null","","","null","","","","","","","","","","<p>The experiment will resume in 24 seconds. ",""
"","html-keyboard-response","311","595355","0.0-2.0-4.99-1.99-7.99","ly1","[""L""]","","","","","","null","","","null","","","","","","","","","","<p>The experiment will resume in 23 seconds. ",""
"","html-keyboard-response","312","596370","0.0-2.0-4.99-1.99-8.99","ly1","[""L""]","","","","","","null","","","null","","","","","","","","","","<p>The experiment will resume in 22 seconds. ",""
"","html-keyboard-response","313","597375","0.0-2.0-4.99-1.99-9.99","ly1","[""L""]","","","","","","null","","","null","","","","","","","","","","<p>The experiment will resume in 21 seconds. ",""
"","html-keyboard-response","314","598386","0.0-2.0-4.99-1.99-10.99","ly1","[""L""]","","","","","","null","","","null","","","","","","","","","","<p>The experiment will resume in 20 seconds. ",""
"","html-keyboard-response","315","599401","0.0-2.0-4.99-1.99-11.99","ly1","[""L""]","","","","","","null","","","null","","","","","","","","","","<p>The experiment will resume in 19 seconds. ",""
"","html-keyboard-response","316","600408","0.0-2.0-4.99-1.99-12.99","ly1","[""L""]","","","","","","null","","","null","","","","","","","","","","<p>The experiment will resume in 18 seconds. ",""
"","html-keyboard-response","317","601414","0.0-2.0-4.99-1.99-13.99","ly1","[""L""]","","","","","","null","","","null","","","","","","","","","","<p>The experiment will resume in 17 seconds. ",""
"","html-keyboard-response","318","602423","0.0-2.0-4.99-1.99-14.99","ly1","[""L""]","","","","","","null","","","null","","","","","","","","","","<p>The experiment will resume in 16 seconds. ",""
"","html-keyboard-response","319","603435","0.0-2.0-4.99-1.99-15.99","ly1","[""L""]","","","","","","null","","","null","","","","","","","","","","<p>The experiment will resume in 15 seconds. ",""
"","html-keyboard-response","320","604443","0.0-2.0-4.99-1.99-16.99","ly1","[""L""]","","","","","","null","","","null","","","","","","","","","","<p>The experiment will resume in 14 seconds. ",""
"","html-keyboard-response","321","605452","0.0-2.0-4.99-1.99-17.99","ly1","[""L""]","","","","","","null","","","null","","","","","","","","","","<p>The experiment will resume in 13 seconds. ",""
"","html-keyboard-response","322","606469","0.0-2.0-4.99-1.99-18.99","ly1","[""L""]","","","","","","null","","","null","","","","","","","","","","<p>The experiment will resume in 12 seconds. ",""
"","html-keyboard-response","323","607484","0.0-2.0-4.99-1.99-19.99","ly1","[""L""]","","","","","","null","","","null","","","","","","","","","","<p>The experiment will resume in 11 seconds. ",""
"","html-keyboard-response","324","608496","0.0-2.0-4.99-1.99-20.99","ly1","[""L""]","","","","","","null","","","null","","","","","","","","","","<p>The experiment will resume in 10 seconds. ",""
"","html-keyboard-response","325","609499","0.0-2.0-4.99-1.99-21.99","ly1","[""L""]","","","","","","null","","","null","","","","","","","","","","<p>The experiment will resume in 9 seconds. ",""
"","html-keyboard-response","326","610511","0.0-2.0-4.99-1.99-22.99","ly1","[""L""]","","","","","","null","","","null","","","","","","","","","","<p>The experiment will resume in 8 seconds. ",""
"","html-keyboard-response","327","611516","0.0-2.0-4.99-1.99-23.99","ly1","[""L""]","","","","","","null","","","null","","","","","","","","","","<p>The experiment will resume in 7 seconds. ",""
"","html-keyboard-response","328","612530","0.0-2.0-4.99-1.99-24.99","ly1","[""L""]","","","","","","null","","","null","","","","","","","","","","<p>The experiment will resume in 6 seconds. ",""
"","html-keyboard-response","329","613537","0.0-2.0-4.99-1.99-25.99","ly1","[""L""]","","","","","","null","","","null","","","","","","","","","","<p>The experiment will resume in 5 seconds. ",""
"","html-keyboard-response","330","614553","0.0-2.0-4.99-1.99-26.99","ly1","[""L""]","","","","","","null","","","null","","","","","","","","","","<p>The experiment will resume in 4 seconds. ",""
"","html-keyboard-response","331","615556","0.0-2.0-4.99-1.99-27.99","ly1","[""L""]","","","","","","null","","","null","","","","","","","","","","<p>The experiment will resume in 3 seconds. ",""
"","html-keyboard-response","332","616570","0.0-2.0-4.99-1.99-28.99","ly1","[""L""]","","","","","","null","","","null","","","","","","","","","","<p>The experiment will resume in 2 seconds. ",""
"","html-keyboard-response","333","617580","0.0-2.0-4.99-1.99-29.99","ly1","[""L""]","","","","","","null","","","null","","","","","","","","","","<p>The experiment will resume in 1 seconds. ",""
"","psychophysics","334","623678","0.0-2.0-0.100","ly1","[""L""]","","","","","","5393","key","z","z","16.67262841530063","912","513","2","0","0","0","1","false","",""
"","psychophysics","335","624685","0.0-2.0-1.100","ly1","[""L""]","","","","","","null","key","null","null","16.671542372882083","912","513","2","0","0","0","1","","",""
"","psychophysics","336","625695","0.0-2.0-3.100-0.100","ly1","[""L""]","","","","","","null","key","null","null","16.6729666666671","912","513","2","0","0","0","1","","",""
"","psychophysics","337","627500","0.0-2.0-0.101","ly1","[""L""]","","","","","","1101","key","m","m","16.670822429905915","912","513","2","0","1","0","1","true","",""
"","psychophysics","338","628504","0.0-2.0-1.101","ly1","[""L""]","","","","","","null","key","null","null","16.673033898305622","912","513","2","0","1","0","1","","",""
"","psychophysics","339","629515","0.0-2.0-2.101-0.101","ly1","[""L""]","","","","","","null","key","null","null","16.67278333333282","912","513","2","0","1","0","1","","",""
"","psychophysics","340","631933","0.0-2.0-0.102","ly1","[""L""]","","","","","","1714","key","z","z","16.672333333333274","912","513","1","1","0","1","0","true","",""
"","psychophysics","341","632940","0.0-2.0-1.102","ly1","[""L""]","","","","","","null","key","null","null","16.66944067796566","912","513","1","1","0","1","0","","",""
"","psychophysics","342","633944","0.0-2.0-2.102-0.102","ly1","[""L""]","","","","","","null","key","null","null","16.673666666667366","912","513","1","1","0","1","0","","",""
"","psychophysics","343","636917","0.0-2.0-0.103","ly1","[""L""]","","","","","","2270","key","m","m","16.6720000000001","912","513","2","1","0","1","0","true","",""
"","psychophysics","344","637924","0.0-2.0-1.103","ly1","[""L""]","","","","","","null","key","null","null","16.671864406779896","912","513","2","1","0","1","0","","",""
"","psychophysics","345","638934","0.0-2.0-2.103-0.103","ly1","[""L""]","","","","","","null","key","null","null","16.671849999999782","912","513","2","1","0","1","0","","",""
"","psychophysics","346","640788","0.0-2.0-0.104","ly1","[""L""]","","","","","","1151","key","m","m","16.671881818181877","912","513","2","0","0","1","1","true","",""
"","psychophysics","347","641796","0.0-2.0-1.104","ly1","[""L""]","","","","","","null","key","null","null","16.67243333333366","912","513","2","0","0","1","1","","",""
"","psychophysics","348","642804","0.0-2.0-2.104-0.104","ly1","[""L""]","","","","","","null","key","null","null","16.672338983049947","912","513","2","0","0","1","1","","",""
"","psychophysics","349","644804","0.0-2.0-0.105","ly1","[""L""]","","","","","","1297","key","z","z","16.6162521008406","912","513","1","0","0","1","1","true","",""
"","psychophysics","350","645811","0.0-2.0-1.105","ly1","[""L""]","","","","","","null","key","null","null","16.672389830508017","912","513","1","0","0","1","1","","",""
"","psychophysics","351","646820","0.0-2.0-2.105-0.105","ly1","[""L""]","","","","","","null","key","null","null","16.67251666666707","912","513","1","0","0","1","1","","",""
"","psychophysics","352","649221","0.0-2.0-0.106","ly1","[""L""]","","","","","","1697","key","z","z","16.672125874125477","912","513","1","0","1","1","1","true","",""
"","psychophysics","353","650228","0.0-2.0-1.106","ly1","[""L""]","","","","","","null","key","null","null","16.67189830508462","912","513","1","0","1","1","1","","",""
"","psychophysics","354","651237","0.0-2.0-2.106-0.106","ly1","[""L""]","","","","","","null","key","null","null","16.672350000000247","912","513","1","0","1","1","1","","",""
"","psychophysics","355","653820","0.0-2.0-0.107","ly1","[""L""]","","","","","","1878","key","m","m","16.672331168831104","912","513","1","0","1","0","1","false","",""
"","psychophysics","356","654827","0.0-2.0-1.107","ly1","[""L""]","","","","","","null","key","null","null","16.670796610170314","912","513","1","0","1","0","1","","",""
"","psychophysics","357","655836","0.0-2.0-3.107-0.107","ly1","[""L""]","","","","","","null","key","null","null","16.672766666667304","912","513","1","0","1","0","1","","",""
"","psychophysics","358","659525","0.0-2.0-0.108","ly1","[""L""]","","","","","","2985","key","m","m","16.672004545454612","912","513","1","0","0","0","0","false","",""
"","psychophysics","359","660532","0.0-2.0-1.108","ly1","[""L""]","","","","","","null","key","null","null","16.671338983049807","912","513","1","0","0","0","0","","",""
"","psychophysics","360","661541","0.0-2.0-3.108-0.108","ly1","[""L""]","","","","","","null","key","null","null","16.671149999999518","912","513","1","0","0","0","0","","",""
"","psychophysics","361","664271","0.0-2.0-0.109","ly1","[""L""]","","","","","","2027","key","m","m","16.672184049079704","912","513","2","1","0","1","1","true","",""
"","psychophysics","362","665279","0.0-2.0-1.109","ly1","[""L""]","","","","","","null","key","null","null","16.671830508473203","912","513","2","1","0","1","1","","",""
"","psychophysics","363","666288","0.0-2.0-2.109-0.109","ly1","[""L""]","","","","","","null","key","null","null","16.671833333332323","912","513","2","1","0","1","1","","",""
"","psychophysics","364","668622","0.0-2.0-0.110","ly1","[""L""]","","","","","","1631","key","m","m","16.671798561151114","912","513","2","1","1","0","1","true","",""
"","psychophysics","365","669630","0.0-2.0-1.110","ly1","[""L""]","","","","","","null","key","null","null","16.670813559321687","912","513","2","1","1","0","1","","",""
"","psychophysics","366","670636","0.0-2.0-2.110-0.110","ly1","[""L""]","","","","","","null","key","null","null","16.672338983051922","912","513","2","1","1","0","1","","",""
"","psychophysics","367","672981","0.0-2.0-0.111","ly1","[""L""]","","","","","","1642","key","z","z","16.672478571428552","912","513","1","1","0","1","1","true","",""
"","psychophysics","368","673991","0.0-2.0-1.111","ly1","[""L""]","","","","","","null","key","null","null","16.673483333333085","912","513","1","1","0","1","1","","",""
"","psychophysics","369","675000","0.0-2.0-2.111-0.111","ly1","[""L""]","","","","","","null","key","null","null","16.67210169491492","912","513","1","1","0","1","1","","",""
"","psychophysics","370","677285","0.0-2.0-0.112","ly1","[""L""]","","","","","","1581","key","m","m","16.671911764705918","912","513","2","0","0","1","1","true","",""
"","psychophysics","371","678292","0.0-2.0-1.112","ly1","[""L""]","","","","","","null","key","null","null","16.672283333334295","912","513","2","0","0","1","1","","",""
"","psychophysics","372","679300","0.0-2.0-2.112-0.112","ly1","[""L""]","","","","","","null","key","null","null","16.671915254237966","912","513","2","0","0","1","1","","",""
"","psychophysics","373","682269","0.0-2.0-0.113","ly1","[""L""]","","","","","","2265","key","z","z","16.672096045197797","912","513","1","1","1","0","1","true","",""
"","psychophysics","374","683276","0.0-2.0-1.113","ly1","[""L""]","","","","","","null","key","null","null","16.6724166666662","912","513","1","1","1","0","1","","",""
"","psychophysics","375","684285","0.0-2.0-2.113-0.113","ly1","[""L""]","","","","","","null","key","null","null","16.672830508475318","912","513","1","1","1","0","1","","",""
"","psychophysics","376","686005","0.0-2.0-0.114","ly1","[""L""]","","","","","","1017","key","z","z","16.67199019607791","912","513","1","0","0","1","1","true","",""
"","psychophysics","377","687014","0.0-2.0-1.114","ly1","[""L""]","","","","","","null","key","null","null","16.67280000000028","912","513","1","0","0","1","1","","",""
"","psychophysics","378","688024","0.0-2.0-2.114-0.114","ly1","[""L""]","","","","","","null","key","null","null","16.673915254236277","912","513","1","0","0","1","1","","",""
"","psychophysics","379","689678","0.0-2.0-0.115","ly1","[""L""]","","","","","","951","key","m","m","16.672414141414322","912","513","2","0","1","1","1","true","",""
"","psychophysics","380","690685","0.0-2.0-1.115","ly1","[""L""]","","","","","","null","key","null","null","16.67179661016848","912","513","2","0","1","1","1","","",""
"","psychophysics","381","691694","0.0-2.0-2.115-0.115","ly1","[""L""]","","","","","","null","key","null","null","16.671649999999985","912","513","2","0","1","1","1","","",""
"","psychophysics","382","694277","0.0-2.0-0.116","ly1","[""L""]","","","","","","1881","key","m","m","16.672130718954314","912","513","1","1","0","0","1","false","",""
"","psychophysics","383","695284","0.0-2.0-1.116","ly1","[""L""]","","","","","","null","key","null","null","16.672650000000917","912","513","1","1","0","0","1","","",""
"","psychophysics","384","696293","0.0-2.0-3.116-0.116","ly1","[""L""]","","","","","","null","key","null","null","16.67284745762669","912","513","1","1","0","0","1","","",""
"","psychophysics","385","698678","0.0-2.0-0.117","ly1","[""L""]","","","","","","1681","key","z","z","16.67239436619705","912","513","1","1","1","1","1","true","",""
"","psychophysics","386","699686","0.0-2.0-1.117","ly1","[""L""]","","","","","","null","key","null","null","16.672200000000885","912","513","1","1","1","1","1","","",""
"","psychophysics","387","700694","0.0-2.0-2.117-0.117","ly1","[""L""]","","","","","","null","key","null","null","16.672050847458827","912","513","1","1","1","1","1","","",""
"","psychophysics","388","702525","0.0-2.0-0.118","ly1","[""L""]","","","","","","1126","key","m","m","16.672201834862555","912","513","2","0","1","1","1","true","",""
"","psychophysics","389","703532","0.0-2.0-1.118","ly1","[""L""]","","","","","","null","key","null","null","16.673133333331982","912","513","2","0","1","1","1","","",""
"","psychophysics","390","704540","0.0-2.0-2.118-0.118","ly1","[""L""]","","","","","","null","key","null","null","16.67103389830534","912","513","2","0","1","1","1","","",""
"","psychophysics","391","706693","0.0-2.0-0.119","ly1","[""L""]","","","","","","1449","key","z","z","16.67229687500003","912","513","1","1","0","1","1","true","",""
"","psychophysics","392","707700","0.0-2.0-1.119","ly1","[""L""]","","","","","","null","key","null","null","16.672399999998742","912","513","1","1","0","1","1","","",""
"","psychophysics","393","708708","0.0-2.0-2.119-0.119","ly1","[""L""]","","","","","","null","key","null","null","16.67164406779822","912","513","1","1","0","1","1","","",""
"","psychophysics","394","710605","0.0-2.0-0.120","ly1","[""L""]","","","","","","1194","key","z","z","16.672256637167852","912","513","1","0","0","1","1","true","",""
"","psychophysics","395","711611","0.0-2.0-1.120","ly1","[""L""]","","","","","","null","key","null","null","16.67177966101711","912","513","1","0","0","1","1","","",""
"","psychophysics","396","712620","0.0-2.0-2.120-0.120","ly1","[""L""]","","","","","","null","key","null","null","16.672033333334063","912","513","1","0","0","1","1","","",""
"","psychophysics","397","714718","0.0-2.0-0.121","ly1","[""L""]","","","","","","1395","key","z","z","16.67189516129081","912","513","1","0","1","1","1","true","",""
"","psychophysics","398","715726","0.0-2.0-1.121","ly1","[""L""]","","","","","","null","key","null","null","16.67204999999958","912","513","1","0","1","1","1","","",""
"","psychophysics","399","716735","0.0-2.0-2.121-0.121","ly1","[""L""]","","","","","","null","key","null","null","16.67213559322162","912","513","1","0","1","1","1","","",""
"","psychophysics","400","718117","0.0-2.0-0.122","ly1","[""L""]","","","","","","677","key","m","m","16.671817073171173","912","513","2","1","1","1","1","true","",""
"","psychophysics","401","719125","0.0-2.0-1.122","ly1","[""L""]","","","","","","null","key","null","null","16.671799999999347","912","513","2","1","1","1","1","","",""
"","psychophysics","402","720134","0.0-2.0-2.122-0.122","ly1","[""L""]","","","","","","null","key","null","null","16.671525423728735","912","513","2","1","1","1","1","","",""
"","psychophysics","403","722748","0.0-2.0-0.123","ly1","[""L""]","","","","","","1911","key","m","m","16.6721794871794","912","513","2","1","1","1","0","true","",""
"","psychophysics","404","723755","0.0-2.0-1.123","ly1","[""L""]","","","","","","null","key","null","null","16.672850000000714","912","513","2","1","1","1","0","","",""
"","psychophysics","405","724763","0.0-2.0-2.123-0.123","ly1","[""L""]","","","","","","null","key","null","null","16.672728813561154","912","513","2","1","1","1","0","","",""
"","psychophysics","406","726652","0.0-2.0-0.124","ly1","[""L""]","","","","","","1184","key","z","z","16.671821428572002","912","513","2","0","1","0","0","false","",""
"","psychophysics","407","727659","0.0-2.0-1.124","ly1","[""L""]","","","","","","null","key","null","null","16.673000000000076","912","513","2","0","1","0","0","","",""
"","psychophysics","408","728668","0.0-2.0-3.124-0.124","ly1","[""L""]","","","","","","null","key","null","null","16.67179661016848","912","513","2","0","1","0","0","","",""
"","psychophysics","409","730307","0.0-2.0-0.125","ly1","[""L""]","","","","","","935","key","m","m","16.67231632653049","912","513","2","0","0","1","1","true","",""
"","psychophysics","410","731315","0.0-2.0-1.125","ly1","[""L""]","","","","","","null","key","null","null","16.67101694915199","912","513","2","0","0","1","1","","",""
"","psychophysics","411","732322","0.0-2.0-2.125-0.125","ly1","[""L""]","","","","","","null","key","null","null","16.672271186440504","912","513","2","0","0","1","1","","",""
"","psychophysics","412","733796","0.0-2.0-0.126","ly1","[""L""]","","","","","","770","key","z","z","16.671875","912","513","1","1","0","1","1","true","",""
"","psychophysics","413","734803","0.0-2.0-1.126","ly1","[""L""]","","","","","","null","key","null","null","16.67237288135467","912","513","1","1","0","1","1","","",""
"","psychophysics","414","735812","0.0-2.0-2.126-0.126","ly1","[""L""]","","","","","","null","key","null","null","16.672550000000047","912","513","1","1","0","1","1","","",""
"","psychophysics","415","738811","0.0-2.0-0.127","ly1","[""L""]","","","","","","2296","key","z","z","16.671351955307376","912","513","1","0","1","1","1","true","",""
"","psychophysics","416","739817","0.0-2.0-1.127","ly1","[""L""]","","","","","","null","key","null","null","16.673186440677856","912","513","1","0","1","1","1","","",""
"","psychophysics","417","740826","0.0-2.0-2.127-0.127","ly1","[""L""]","","","","","","null","key","null","null","16.67269999999941","912","513","1","0","1","1","1","","",""
"","psychophysics","418","742996","0.0-2.0-0.128","ly1","[""L""]","","","","","","1465","key","m","m","16.672093023255453","912","513","2","1","1","0","1","true","",""
"","psychophysics","419","744002","0.0-2.0-1.128","ly1","[""L""]","","","","","","null","key","null","null","16.671949152542688","912","513","2","1","1","0","1","","",""
"","psychophysics","420","745011","0.0-2.0-2.128-0.128","ly1","[""L""]","","","","","","null","key","null","null","16.672266666664896","912","513","2","1","1","0","1","","",""
"","psychophysics","421","747204","0.0-2.0-0.129","ly1","[""L""]","","","","","","1490","key","m","m","16.672076923076887","912","513","2","1","1","1","0","true","",""
"","psychophysics","422","748212","0.0-2.0-1.129","ly1","[""L""]","","","","","","null","key","null","null","16.671883333334698","912","513","2","1","1","1","0","","",""
"","psychophysics","423","749221","0.0-2.0-2.129-0.129","ly1","[""L""]","","","","","","null","key","null","null","16.67272881355918","912","513","2","1","1","1","0","","",""
"","psychophysics","424","751484","0.0-2.0-0.130","ly1","[""L""]","","","","","","1559","key","m","m","16.67223703703774","912","513","2","1","0","1","0","true","",""
"","psychophysics","425","752490","0.0-2.0-1.130","ly1","[""L""]","","","","","","null","key","null","null","16.673033898305622","912","513","2","1","0","1","0","","",""
"","psychophysics","426","753500","0.0-2.0-2.130-0.130","ly1","[""L""]","","","","","","null","key","null","null","16.67271666666493","912","513","2","1","0","1","0","","",""
"","psychophysics","427","755476","0.0-2.0-0.131","ly1","[""L""]","","","","","","1273","key","m","m","16.815965517241395","912","513","2","1","1","1","0","true","",""
"","psychophysics","428","756483","0.0-2.0-1.131","ly1","[""L""]","","","","","","null","key","null","null","16.673199999999877","912","513","2","1","1","1","0","","",""
"","psychophysics","429","757492","0.0-2.0-2.131-0.131","ly1","[""L""]","","","","","","null","key","null","null","16.67167796610294","912","513","2","1","1","1","0","","",""
"","psychophysics","430","759331","0.0-2.0-0.132","ly1","[""L""]","","","","","","1134","key","m","m","16.678311926605385","912","513","2","1","1","1","0","true","",""
"","psychophysics","431","760337","0.0-2.0-1.132","ly1","[""L""]","","","","","","null","key","null","null","16.673016666667536","912","513","2","1","1","1","0","","",""
"","psychophysics","432","761346","0.0-2.0-2.132-0.132","ly1","[""L""]","","","","","","null","key","null","null","16.672355932203295","912","513","2","1","1","1","0","","",""
"","psychophysics","433","763003","0.0-2.0-0.133","ly1","[""L""]","","","","","","952","key","z","z","16.672101010100427","912","513","1","0","0","1","1","true","",""
"","psychophysics","434","764010","0.0-2.0-1.133","ly1","[""L""]","","","","","","null","key","null","null","16.671101694914782","912","513","1","0","0","1","1","","",""
"","psychophysics","435","765020","0.0-2.0-2.133-0.133","ly1","[""L""]","","","","","","null","key","null","null","16.67305000000051","912","513","1","0","0","1","1","","",""
"","psychophysics","436","766980","0.0-2.0-0.134","ly1","[""L""]","","","","","","1256","key","z","z","16.67243965517264","912","513","2","0","1","0","0","false","",""
"","psychophysics","437","767987","0.0-2.0-1.134","ly1","[""L""]","","","","","","null","key","null","null","16.673216666667333","912","513","2","0","1","0","0","","",""
"","psychophysics","438","768998","0.0-2.0-3.134-0.134","ly1","[""L""]","","","","","","null","key","null","null","16.6713728813565","912","513","2","0","1","0","0","","",""
"","psychophysics","439","770684","0.0-2.0-0.135","ly1","[""L""]","","","","","","982","key","z","z","16.671809999999823","912","513","1","1","0","1","1","true","",""
"","psychophysics","440","771691","0.0-2.0-1.135","ly1","[""L""]","","","","","","null","key","null","null","16.672266666666836","912","513","1","1","0","1","1","","",""
"","psychophysics","441","772699","0.0-2.0-2.135-0.135","ly1","[""L""]","","","","","","null","key","null","null","16.672220338982434","912","513","1","1","0","1","1","","",""
"","psychophysics","442","775268","0.0-2.0-0.136","ly1","[""L""]","","","","","","1864","key","m","m","16.672058823529106","912","513","2","1","1","1","0","true","",""
"","psychophysics","443","776275","0.0-2.0-1.136","ly1","[""L""]","","","","","","null","key","null","null","16.67216666666791","912","513","2","1","1","1","0","","",""
"","psychophysics","444","777285","0.0-2.0-2.136-0.136","ly1","[""L""]","","","","","","null","key","null","null","16.671559322033456","912","513","2","1","1","1","0","","",""
"","psychophysics","445","779084","0.0-2.0-0.137","ly1","[""L""]","","","","","","1096","key","m","m","16.67236448598212","912","513","2","0","1","1","1","true","",""
"","psychophysics","446","780093","0.0-2.0-1.137","ly1","[""L""]","","","","","","null","key","null","null","16.672100000000015","912","513","2","0","1","1","1","","",""
"","psychophysics","447","781101","0.0-2.0-2.137-0.137","ly1","[""L""]","","","","","","null","key","null","null","16.671220338982295","912","513","2","0","1","1","1","","",""
"","psychophysics","448","782564","0.0-2.0-0.138","ly1","[""L""]","","","","","","758","key","z","z","16.67250574712679","912","513","1","1","1","1","1","true","",""
"","psychophysics","449","783571","0.0-2.0-1.138","ly1","[""L""]","","","","","","null","key","null","null","16.95901724137968","912","513","1","1","1","1","1","","",""
"","psychophysics","450","784580","0.0-2.0-2.138-0.138","ly1","[""L""]","","","","","","null","key","null","null","16.672649999998974","912","513","1","1","1","1","1","","",""
"","psychophysics","451","786500","0.0-2.0-0.139","ly1","[""L""]","","","","","","1216","key","m","m","16.67230701754421","912","513","1","1","0","1","0","false","",""
"","psychophysics","452","787508","0.0-2.0-1.139","ly1","[""L""]","","","","","","null","key","null","null","16.672749999999844","912","513","1","1","0","1","0","","",""
"","psychophysics","453","788517","0.0-2.0-3.139-0.139","ly1","[""L""]","","","","","","null","key","null","null","16.671830508475175","912","513","1","1","0","1","0","","",""
"","psychophysics","454","790900","0.0-2.0-0.140","ly1","[""L""]","","","","","","1679","key","m","m","16.67219014084508","912","513","2","1","1","1","0","true","",""
"","psychophysics","455","791906","0.0-2.0-1.140","ly1","[""L""]","","","","","","null","key","null","null","16.672050847456855","912","513","2","1","1","1","0","","",""
"","psychophysics","456","792917","0.0-2.0-2.140-0.140","ly1","[""L""]","","","","","","null","key","null","null","16.67288333333369","912","513","2","1","1","1","0","","",""
"","psychophysics","457","794420","0.0-2.0-0.141","ly1","[""L""]","","","","","","800","key","m","m","16.862056818180875","912","513","1","0","0","0","0","false","",""
"","psychophysics","458","795428","0.0-2.0-1.141","ly1","[""L""]","","","","","","null","key","null","null","16.672833333333255","912","513","1","0","0","0","0","","",""
"","psychophysics","459","796436","0.0-2.0-3.141-0.141","ly1","[""L""]","","","","","","null","key","null","null","16.671525423728735","912","513","1","0","0","0","0","","",""
"","psychophysics","460","798500","0.0-2.0-0.142","ly1","[""L""]","","","","","","1361","key","z","z","16.672292682927147","912","513","1","1","1","1","1","true","",""
"","psychophysics","461","799507","0.0-2.0-1.142","ly1","[""L""]","","","","","","null","key","null","null","16.67198305084741","912","513","1","1","1","1","1","","",""
"","psychophysics","462","800516","0.0-2.0-2.142-0.142","ly1","[""L""]","","","","","","null","key","null","null","16.67196666666617","912","513","1","1","1","1","1","","",""
"","psychophysics","463","802116","0.0-2.0-0.143","ly1","[""L""]","","","","","","897","key","m","m","16.67235789473757","912","513","2","1","0","1","1","true","",""
"","psychophysics","464","803123","0.0-2.0-1.143","ly1","[""L""]","","","","","","null","key","null","null","16.672525423728878","912","513","2","1","0","1","1","","",""
"","psychophysics","465","804132","0.0-2.0-2.143-0.143","ly1","[""L""]","","","","","","null","key","null","null","16.672533333332588","912","513","2","1","0","1","1","","",""
"","psychophysics","466","806756","0.0-2.0-0.144","ly1","[""L""]","","","","","","1920","key","z","z","16.672256410256242","912","513","1","1","0","1","1","true","",""
"","psychophysics","467","807766","0.0-2.0-1.144","ly1","[""L""]","","","","","","null","key","null","null","16.67280000000028","912","513","1","1","0","1","1","","",""
"","psychophysics","468","808774","0.0-2.0-2.144-0.144","ly1","[""L""]","","","","","","null","key","null","null","16.67184745762655","912","513","1","1","0","1","1","","",""
"","psychophysics","469","810396","0.0-2.0-0.145","ly1","[""L""]","","","","","","919","key","z","z","16.67273958333317","912","513","1","0","0","1","0","true","",""
"","psychophysics","470","811403","0.0-2.0-1.145","ly1","[""L""]","","","","","","null","key","null","null","16.672533333332588","912","513","1","0","0","1","0","","",""
"","psychophysics","471","812412","0.0-2.0-2.145-0.145","ly1","[""L""]","","","","","","null","key","null","null","16.67172881355904","912","513","1","0","0","1","0","","",""
"","psychophysics","472","814052","0.0-2.0-0.146","ly1","[""L""]","","","","","","936","key","z","z","16.672520408163333","912","513","1","0","0","1","1","true","",""
"","psychophysics","473","815059","0.0-2.0-1.146","ly1","[""L""]","","","","","","null","key","null","null","16.959241379311326","912","513","1","0","0","1","1","","",""
"","psychophysics","474","816068","0.0-2.0-2.146-0.146","ly1","[""L""]","","","","","","null","key","null","null","16.672650000000917","912","513","1","0","0","1","1","","",""
"","psychophysics","475","817668","0.0-2.0-0.147","ly1","[""L""]","","","","","","897","key","z","z","16.67221052631564","912","513","1","1","1","1","1","true","",""
"","psychophysics","476","818675","0.0-2.0-1.147","ly1","[""L""]","","","","","","null","key","null","null","16.67181355932183","912","513","1","1","1","1","1","","",""
"","psychophysics","477","819684","0.0-2.0-2.147-0.147","ly1","[""L""]","","","","","","null","key","null","null","16.672116666667474","912","513","1","1","1","1","1","","",""
"","psychophysics","478","821108","0.0-2.0-0.148","ly1","[""L""]","","","","","","718","key","m","m","16.672226190476934","912","513","1","0","0","0","1","false","",""
"","psychophysics","479","822115","0.0-2.0-1.148","ly1","[""L""]","","","","","","null","key","null","null","16.671779661015133","912","513","1","0","0","0","1","","",""
"","psychophysics","480","823124","0.0-2.0-3.148-0.148","ly1","[""L""]","","","","","","null","key","null","null","16.672550000000047","912","513","1","0","0","0","1","","",""
"","psychophysics","481","824692","0.0-2.0-0.149","ly1","[""L""]","","","","","","865","key","z","z","16.671806451612934","912","513","2","0","0","0","0","false","",""
"","psychophysics","482","825699","0.0-2.0-1.149","ly1","[""L""]","","","","","","null","key","null","null","16.670898305084478","912","513","2","0","0","0","0","","",""
"","psychophysics","483","826707","0.0-2.0-3.149-0.149","ly1","[""L""]","","","","","","null","key","null","null","16.672283333334295","912","513","2","0","0","0","0","","",""
"","psychophysics","484","828372","0.0-2.0-0.150","ly1","[""L""]","","","","","","960","key","m","m","16.671888888888812","912","513","2","0","1","1","1","true","",""
"","psychophysics","485","829378","0.0-2.0-1.150","ly1","[""L""]","","","","","","null","key","null","null","16.671999999998786","912","513","2","0","1","1","1","","",""
"","psychophysics","486","830388","0.0-2.0-2.150-0.150","ly1","[""L""]","","","","","","null","key","null","null","16.672500000001552","912","513","2","0","1","1","1","","",""
"","psychophysics","487","831900","0.0-2.0-0.151","ly1","[""L""]","","","","","","808","key","m","m","16.67119101123633","912","513","1","0","1","0","0","false","",""
"","psychophysics","488","832908","0.0-2.0-1.151","ly1","[""L""]","","","","","","null","key","null","null","16.675300000000668","912","513","1","0","1","0","0","","",""
"","psychophysics","489","833916","0.0-2.0-3.151-0.151","ly1","[""L""]","","","","","","null","key","null","null","16.672338983051922","912","513","1","0","1","0","0","","",""
"","psychophysics","490","835460","0.0-2.0-0.152","ly1","[""L""]","","","","","","839","key","m","m","16.67249999999995","912","513","2","0","0","1","1","true","",""
"","psychophysics","491","836466","0.0-2.0-1.152","ly1","[""L""]","","","","","","null","key","null","null","16.6706779661028","912","513","2","0","0","1","1","","",""
"","psychophysics","492","837475","0.0-2.0-2.152-0.152","ly1","[""L""]","","","","","","null","key","null","null","16.672850000000714","912","513","2","0","0","1","1","","",""
"","psychophysics","493","841526","0.0-2.0-0.153","ly1","[""L""]","","","","","","3347","key","z","z","16.67171900826439","912","513","1","0","1","0","1","true","",""
"","psychophysics","494","842534","0.0-2.0-1.153","ly1","[""L""]","","","","","","null","key","null","null","16.67245762711943","912","513","1","0","1","0","1","","",""
"","psychophysics","495","843544","0.0-2.0-2.153-0.153","ly1","[""L""]","","","","","","null","key","null","null","16.672850000000714","912","513","1","0","1","0","1","","",""
"","psychophysics","496","845556","0.0-2.0-0.154","ly1","[""L""]","","","","","","1308","key","m","m","16.671907563025655","912","513","1","0","1","1","0","false","",""
"","psychophysics","497","846564","0.0-2.0-1.154","ly1","[""L""]","","","","","","null","key","null","null","16.671816666666807","912","513","1","0","1","1","0","","",""
"","psychophysics","498","847572","0.0-2.0-3.154-0.154","ly1","[""L""]","","","","","","null","key","null","null","16.67210169491492","912","513","1","0","1","1","0","","",""
"","psychophysics","499","849862","0.0-2.0-0.155","ly1","[""L""]","","","","","","1584","key","m","m","16.672277372262446","912","513","1","1","0","0","1","false","",""
"","psychophysics","500","850869","0.0-2.0-1.155","ly1","[""L""]","","","","","","null","key","null","null","16.670559322033313","912","513","1","1","0","0","1","","",""
"","psychophysics","501","851878","0.0-2.0-3.155-0.155","ly1","[""L""]","","","","","","null","key","null","null","16.672033333334063","912","513","1","1","0","0","1","","",""
"","psychophysics","502","854196","0.0-2.0-0.156","ly1","[""L""]","","","","","","1615","key","z","z","16.67178985507285","912","513","1","0","1","1","1","true","",""
"","psychophysics","503","855203","0.0-2.0-1.156","ly1","[""L""]","","","","","","null","key","null","null","16.671881355933245","912","513","1","0","1","1","1","","",""
"","psychophysics","504","856213","0.0-2.0-2.156-0.156","ly1","[""L""]","","","","","","null","key","null","null","16.671949999998713","912","513","1","0","1","1","1","","",""
"","psychophysics","505","858398","0.0-2.0-0.157","ly1","[""L""]","","","","","","1482","key","m","m","16.672115384615385","912","513","2","1","0","1","0","true","",""
"","psychophysics","506","859404","0.0-2.0-1.157","ly1","[""L""]","","","","","","null","key","null","null","16.67123728813564","912","513","2","1","0","1","0","","",""
"","psychophysics","507","860422","0.0-2.0-2.157-0.157","ly1","[""L""]","","","","","","null","key","null","null","16.67231666666533","912","513","2","1","0","1","0","","",""
"","psychophysics","508","862182","0.0-2.0-0.158","ly1","[""L""]","","","","","","1056","key","z","z","16.672171428571232","912","513","1","0","0","1","1","true","",""
"","psychophysics","509","863189","0.0-2.0-1.158","ly1","[""L""]","","","","","","null","key","null","null","16.67242372881274","912","513","1","0","0","1","1","","",""
"","psychophysics","510","864199","0.0-2.0-2.158-0.158","ly1","[""L""]","","","","","","null","key","null","null","16.672916666666666","912","513","1","0","0","1","1","","",""
"","psychophysics","511","866813","0.0-2.0-0.159","ly1","[""L""]","","","","","","1911","key","z","z","16.67183225806502","912","513","1","1","0","1","0","true","",""
"","psychophysics","512","867820","0.0-2.0-1.159","ly1","[""L""]","","","","","","null","key","null","null","16.67214999999851","912","513","1","1","0","1","0","","",""
"","psychophysics","513","868829","0.0-2.0-2.159-0.159","ly1","[""L""]","","","","","","null","key","null","null","16.67264406779639","912","513","1","1","0","1","0","","",""
"","psychophysics","514","870764","0.0-2.0-0.160","ly1","[""L""]","","","","","","1231","key","m","m","16.672321739130776","912","513","2","0","1","1","1","true","",""
"","psychophysics","515","871774","0.0-2.0-1.160","ly1","[""L""]","","","","","","null","key","null","null","16.672449999999177","912","513","2","0","1","1","1","","",""
"","psychophysics","516","872783","0.0-2.0-2.160-0.160","ly1","[""L""]","","","","","","null","key","null","null","16.67289830508476","912","513","2","0","1","1","1","","",""
"","psychophysics","517","875116","0.0-2.0-0.161","ly1","[""L""]","","","","","","1630","key","m","m","16.67189928057533","912","513","2","0","0","1","1","true","",""
"","psychophysics","518","876124","0.0-2.0-1.161","ly1","[""L""]","","","","","","null","key","null","null","16.67271666666687","912","513","2","0","0","1","1","","",""
"","psychophysics","519","877132","0.0-2.0-2.161-0.161","ly1","[""L""]","","","","","","null","key","null","null","16.671847457628523","912","513","2","0","0","1","1","","",""
"","psychophysics","520","882892","0.0-2.0-0.162","ly1","[""L""]","","","","","","5056","key","m","m","16.672000000000242","912","513","1","0","0","0","1","false","",""
"","psychophysics","521","883899","0.0-2.0-1.162","ly1","[""L""]","","","","","","null","key","null","null","16.67123728813564","912","513","1","0","0","0","1","","",""
"","psychophysics","522","884905","0.0-2.0-3.162-0.162","ly1","[""L""]","","","","","","null","key","null","null","16.673183333332418","912","513","1","0","0","0","1","","",""
"","psychophysics","523","887860","0.0-2.0-0.163","ly1","[""L""]","","","","","","2252","key","m","m","16.671886363636244","912","513","1","0","0","1","0","false","",""
"","psychophysics","524","888867","0.0-2.0-1.163","ly1","[""L""]","","","","","","null","key","null","null","16.671745762712387","912","513","1","0","0","1","0","","",""
"","psychophysics","525","889876","0.0-2.0-3.163-0.163","ly1","[""L""]","","","","","","null","key","null","null","16.955406779660134","912","513","1","0","0","1","0","","",""
"","psychophysics","526","892542","0.0-2.0-0.164","ly1","[""L""]","","","","","","1961","key","z","z","16.671836477987696","912","513","2","0","0","0","1","false","",""
"","psychophysics","527","893549","0.0-2.0-1.164","ly1","[""L""]","","","","","","null","key","null","null","16.671881355933245","912","513","2","0","0","0","1","","",""
"","psychophysics","528","894559","0.0-2.0-3.164-0.164","ly1","[""L""]","","","","","","null","key","null","null","16.6724166666662","912","513","2","0","0","0","1","","",""
"","psychophysics","529","896965","0.0-2.0-0.165","ly1","[""L""]","","","","","","1703","key","z","z","16.671790209790153","912","513","1","1","0","1","1","true","",""
"","psychophysics","530","897972","0.0-2.0-1.165","ly1","[""L""]","","","","","","null","key","null","null","16.67284745762669","912","513","1","1","0","1","1","","",""
"","psychophysics","531","898981","0.0-2.0-2.165-0.165","ly1","[""L""]","","","","","","null","key","null","null","16.67280000000028","912","513","1","1","0","1","1","","",""
"","psychophysics","532","901380","0.0-2.0-0.166","ly1","[""L""]","","","","","","1695","key","z","z","16.671587412587492","912","513","1","1","1","1","1","true","",""
"","psychophysics","533","902387","0.0-2.0-1.166","ly1","[""L""]","","","","","","null","key","null","null","16.671593220338178","912","513","1","1","1","1","1","","",""
"","psychophysics","534","903400","0.0-2.0-2.166-0.166","ly1","[""L""]","","","","","","null","key","null","null","16.672266666666836","912","513","1","1","1","1","1","","",""
"","psychophysics","535","904948","0.0-2.0-0.167","ly1","[""L""]","","","","","","845","key","z","z","16.67191304347817","912","513","2","0","0","0","0","false","",""
"","psychophysics","536","905955","0.0-2.0-1.167","ly1","[""L""]","","","","","","null","key","null","null","16.6716271186429","912","513","2","0","0","0","0","","",""
"","psychophysics","537","906965","0.0-2.0-3.167-0.167","ly1","[""L""]","","","","","","null","key","null","null","16.671833333332323","912","513","2","0","0","0","0","","",""
"","psychophysics","538","908468","0.0-2.0-0.168","ly1","[""L""]","","","","","","800","key","m","m","16.672460674157815","912","513","2","1","1","1","1","true","",""
"","psychophysics","539","909476","0.0-2.0-1.168","ly1","[""L""]","","","","","","null","key","null","null","16.67215254237299","912","513","2","1","1","1","1","","",""
"","psychophysics","540","910485","0.0-2.0-2.168-0.168","ly1","[""L""]","","","","","","null","key","null","null","16.672683333331953","912","513","2","1","1","1","1","","",""
"","psychophysics","541","911947","0.0-2.0-0.169","ly1","[""L""]","","","","","","759","key","z","z","16.670505747125464","912","513","1","0","0","1","1","true","",""
"","psychophysics","542","912952","0.0-2.0-1.169","ly1","[""L""]","","","","","","null","key","null","null","16.674033898305762","912","513","1","0","0","1","1","","",""
"","psychophysics","543","913960","0.0-2.0-2.169-0.169","ly1","[""L""]","","","","","","null","key","null","null","16.671881355933245","912","513","1","0","0","1","1","","",""
"","psychophysics","544","915660","0.0-2.0-0.170","ly1","[""L""]","","","","","","995","key","m","m","16.673247524752686","912","513","2","1","1","1","1","true","",""
"","psychophysics","545","916668","0.0-2.0-1.170","ly1","[""L""]","","","","","","null","key","null","null","16.672283333332356","912","513","2","1","1","1","1","","",""
"","psychophysics","546","917676","0.0-2.0-2.170-0.170","ly1","[""L""]","","","","","","null","key","null","null","16.67237288135467","912","513","2","1","1","1","1","","",""
"","psychophysics","547","919237","0.0-2.0-0.171","ly1","[""L""]","","","","","","857","key","m","m","16.671752688172024","912","513","2","0","0","1","1","true","",""
"","psychophysics","548","920243","0.0-2.0-1.171","ly1","[""L""]","","","","","","null","key","null","null","16.66983050847489","912","513","2","0","0","1","1","","",""
"","psychophysics","549","921250","0.0-2.0-2.171-0.171","ly1","[""L""]","","","","","","null","key","null","null","16.673100000000947","912","513","2","0","0","1","1","","",""
"","psychophysics","550","923204","0.0-2.0-0.172","ly1","[""L""]","","","","","","1239","key","m","m","16.67187931034453","912","513","2","1","1","1","1","true","",""
"","psychophysics","551","924211","0.0-2.0-1.172","ly1","[""L""]","","","","","","null","key","null","null","16.670966101695893","912","513","2","1","1","1","1","","",""
"","psychophysics","552","925220","0.0-2.0-2.172-0.172","ly1","[""L""]","","","","","","null","key","null","null","16.672666666668373","912","513","2","1","1","1","1","","",""
"","psychophysics","553","928116","0.0-2.0-0.173","ly1","[""L""]","","","","","","2192","key","m","m","16.67210465116253","912","513","2","0","1","0","1","true","",""
"","psychophysics","554","929124","0.0-2.0-1.173","ly1","[""L""]","","","","","","null","key","null","null","16.67208333333256","912","513","2","0","1","0","1","","",""
"","psychophysics","555","930132","0.0-2.0-2.173-0.173","ly1","[""L""]","","","","","","null","key","null","null","16.671644067796247","912","513","2","0","1","0","1","","",""
"","psychophysics","556","932188","0.0-2.0-0.174","ly1","[""L""]","","","","","","1352","key","m","m","16.671983739837238","912","513","1","0","1","1","0","false","",""
"","psychophysics","557","933196","0.0-2.0-1.174","ly1","[""L""]","","","","","","null","key","null","null","16.589271186440552","912","513","1","0","1","1","0","","",""
"","psychophysics","558","934205","0.0-2.0-3.174-0.174","ly1","[""L""]","","","","","","null","key","null","null","16.672766666665364","912","513","1","0","1","1","0","","",""
"","psychophysics","559","936405","0.0-2.0-0.175","ly1","[""L""]","","","","","","1497","key","z","z","16.79986923076929","912","513","1","0","1","1","1","true","",""
"","psychophysics","560","937411","0.0-2.0-1.175","ly1","[""L""]","","","","","","null","key","null","null","16.671711864407662","912","513","1","0","1","1","1","","",""
"","psychophysics","561","938421","0.0-2.0-2.175-0.175","ly1","[""L""]","","","","","","null","key","null","null","16.67298333333456","912","513","1","0","1","1","1","","",""
"","psychophysics","562","940925","0.0-2.0-0.176","ly1","[""L""]","","","","","","1800","key","m","m","16.672288590603845","912","513","2","0","1","1","1","true","",""
"","psychophysics","563","941933","0.0-2.0-1.176","ly1","[""L""]","","","","","","null","key","null","null","16.672016949154106","912","513","2","0","1","1","1","","",""
"","psychophysics","564","942942","0.0-2.0-2.176-0.176","ly1","[""L""]","","","","","","null","key","null","null","16.9556949152552","912","513","2","0","1","1","1","","",""
"","psychophysics","565","945796","0.0-2.0-0.177","ly1","[""L""]","","","","","","2150","key","z","z","16.671841176470522","912","513","1","1","1","1","1","true","",""
"","psychophysics","566","946803","0.0-2.0-1.177","ly1","[""L""]","","","","","","null","key","null","null","16.67201694915213","912","513","1","1","1","1","1","","",""
"","psychophysics","567","947812","0.0-2.0-2.177-0.177","ly1","[""L""]","","","","","","null","key","null","null","16.673216666665393","912","513","1","1","1","1","1","","",""
"","psychophysics","568","949868","0.0-2.0-0.178","ly1","[""L""]","","","","","","1353","key","m","m","16.671581967212795","912","513","1","1","1","0","0","false","",""
"","psychophysics","569","950876","0.0-2.0-1.178","ly1","[""L""]","","","","","","null","key","null","null","16.671750000000852","912","513","1","1","1","0","0","","",""
"","psychophysics","570","951885","0.0-2.0-3.178-0.178","ly1","[""L""]","","","","","","null","key","null","null","16.67045762711915","912","513","1","1","1","0","0","","",""
"","psychophysics","571","955516","0.0-2.0-0.179","ly1","[""L""]","","","","","","2927","key","m","m","16.67206912442413","912","513","1","0","0","0","1","false","",""
"","psychophysics","572","956522","0.0-2.0-1.179","ly1","[""L""]","","","","","","null","key","null","null","16.67167796610097","912","513","1","0","0","0","1","","",""
"","psychophysics","573","957531","0.0-2.0-3.179-0.179","ly1","[""L""]","","","","","","null","key","null","null","16.672650000000917","912","513","1","0","0","0","1","","",""
"","psychophysics","574","959468","0.0-2.0-0.180","ly1","[""L""]","","","","","","1234","key","z","z","16.671643478261387","912","513","1","1","0","1","0","true","",""
"","psychophysics","575","960475","0.0-2.0-1.180","ly1","[""L""]","","","","","","null","key","null","null","16.670694915254174","912","513","1","1","0","1","0","","",""
"","psychophysics","576","961484","0.0-2.0-2.180-0.180","ly1","[""L""]","","","","","","null","key","null","null","16.672683333331953","912","513","1","1","0","1","0","","",""
"","psychophysics","577","963755","0.0-2.0-0.181","ly1","[""L""]","","","","","","1567","key","m","m","16.670859259259196","912","513","1","1","0","0","1","false","",""
"","psychophysics","578","964759","0.0-2.0-1.181","ly1","[""L""]","","","","","","null","key","null","null","16.67355932203374","912","513","1","1","0","0","1","","",""
"","psychophysics","579","965769","0.0-2.0-3.181-0.181","ly1","[""L""]","","","","","","null","key","null","null","16.67208333333256","912","513","1","1","0","0","1","","",""
