"success","trial_type","trial_index","time_elapsed","internal_node_id","subject","condition","timeout","failed_images","failed_audio","failed_video","view_history","rt","response_type","key_press","response","avg_frame_time","center_x","center_y","outcome","p1conf","p2conf","p1rslt","p2rslt","correct","stimulus","question_order"
"true","fullscreen","0","2010","0.0-0.0-0.0","bsp","[""R""]","","","","","","","","","","","","","","","","","","","",""
"true","preload","1","2016","0.0-0.0-1.0","bsp","[""R""]","false","[]","[]","[]","","","","","","","","","","","","","","","",""
"","instructions","2","55491","0.0-1.0","bsp","[""R""]","","","","","[{""page_index"":0,""viewing_time"":24514},{""page_index"":1,""viewing_time"":10512},{""page_index"":2,""viewing_time"":18448}]","53474","","","","","","","","","","","","","",""
"","psychophysics","3","56396","0.0-2.0-0.0","bsp","[""R""]","","","","","","192","key","z","z","16.686870370370375","740.5","416.5","2","0","1","1","1","false","",""
"","psychophysics","4","57407","0.0-2.0-1.0","bsp","[""R""]","","","","","","null","key","null","null","16.686813559321987","740.5","416.5","2","0","1","1","1","","",""
"","psychophysics","5","58417","0.0-2.0-3.0-0.0","bsp","[""R""]","","","","","","null","key","null","null","16.68638333333329","740.5","416.5","2","0","1","1","1","","",""
"","psychophysics","6","61852","0.0-2.0-0.1","bsp","[""R""]","","","","","","2730","key","z","z","16.685873170731703","740.5","416.5","2","1","1","0","0","false","",""
"","psychophysics","7","62860","0.0-2.0-1.1","bsp","[""R""]","","","","","","null","key","null","null","16.686000000000032","740.5","416.5","2","1","1","0","0","","",""
"","psychophysics","8","63871","0.0-2.0-3.1-0.1","bsp","[""R""]","","","","","","null","key","null","null","16.686149999999905","740.5","416.5","2","1","1","0","0","","",""
"","psychophysics","9","68190","0.0-2.0-0.2","bsp","[""R""]","","","","","","3615","key","m","m","16.68608139534883","740.5","416.5","2","0","0","1","0","true","",""
"","psychophysics","10","69199","0.0-2.0-1.2","bsp","[""R""]","","","","","","null","key","null","null","16.68722033898284","740.5","416.5","2","0","0","1","0","","",""
"","psychophysics","11","70209","0.0-2.0-2.2-0.2","bsp","[""R""]","","","","","","null","key","null","null","16.68598333333333","740.5","416.5","2","0","0","1","0","","",""
"","psychophysics","12","75245","0.0-2.0-0.3","bsp","[""R""]","","","","","","4330","key","z","z","16.685876666666687","740.5","416.5","2","1","0","0","0","false","",""
"","psychophysics","13","76252","0.0-2.0-1.3","bsp","[""R""]","","","","","","null","key","null","null","16.68665000000013","740.5","416.5","2","1","0","0","0","","",""
"","psychophysics","14","77263","0.0-2.0-3.3-0.3","bsp","[""R""]","","","","","","null","key","null","null","16.68669491525423","740.5","416.5","2","1","0","0","0","","",""
"","psychophysics","15","80539","0.0-2.0-0.4","bsp","[""R""]","","","","","","2572","key","m","m","16.68587755102041","740.5","416.5","1","0","0","0","0","false","",""
"","psychophysics","16","81547","0.0-2.0-1.4","bsp","[""R""]","","","","","","null","key","null","null","16.685067796610074","740.5","416.5","1","0","0","0","0","","",""
"","psychophysics","17","82559","0.0-2.0-3.4-0.4","bsp","[""R""]","","","","","","null","key","null","null","16.68748333333327","740.5","416.5","1","0","0","0","0","","",""
"","psychophysics","18","85772","0.0-2.0-0.5","bsp","[""R""]","","","","","","2508","key","m","m","16.68603664921464","740.5","416.5","2","0","0","1","0","true","",""
"","psychophysics","19","86780","0.0-2.0-1.5","bsp","[""R""]","","","","","","null","key","null","null","16.687299999999958","740.5","416.5","2","0","0","1","0","","",""
"","psychophysics","20","87788","0.0-2.0-2.5-0.5","bsp","[""R""]","","","","","","null","key","null","null","16.68510169491529","740.5","416.5","2","0","0","1","0","","",""
"","psychophysics","21","90092","0.0-2.0-0.6","bsp","[""R""]","","","","","","1600","key","z","z","16.686481751824783","740.5","416.5","2","0","0","1","1","false","",""
"","psychophysics","22","91100","0.0-2.0-1.6","bsp","[""R""]","","","","","","null","key","null","null","16.687049999999967","740.5","416.5","2","0","0","1","1","","",""
"","psychophysics","23","92108","0.0-2.0-3.6-0.6","bsp","[""R""]","","","","","","null","key","null","null","16.686915254237384","740.5","416.5","2","0","0","1","1","","",""
"","psychophysics","24","96332","0.0-2.0-0.7","bsp","[""R""]","","","","","","3520","key","m","m","16.68619047619047","740.5","416.5","2","0","1","1","0","true","",""
"","psychophysics","25","97339","0.0-2.0-1.7","bsp","[""R""]","","","","","","null","key","null","null","16.68726666666674","740.5","416.5","2","0","1","1","0","","",""
"","psychophysics","26","98347","0.0-2.0-2.7-0.7","bsp","[""R""]","","","","","","null","key","null","null","16.685864406779668","740.5","416.5","2","0","1","1","0","","",""
"","psychophysics","27","102683","0.0-2.0-0.8","bsp","[""R""]","","","","","","3632","key","z","z","16.686100386100374","740.5","416.5","1","1","0","0","0","true","",""
"","psychophysics","28","103693","0.0-2.0-1.8","bsp","[""R""]","","","","","","null","key","null","null","16.687694915254124","740.5","416.5","1","1","0","0","0","","",""
"","psychophysics","29","104702","0.0-2.0-2.8-0.8","bsp","[""R""]","","","","","","null","key","null","null","16.68525000000009","740.5","416.5","1","1","0","0","0","","",""
"","psychophysics","30","107724","0.0-2.0-0.9","bsp","[""R""]","","","","","","2318","key","z","z","16.685950000000027","740.5","416.5","2","1","0","1","1","false","",""
"","psychophysics","31","108731","0.0-2.0-1.9","bsp","[""R""]","","","","","","null","key","null","null","16.68706779661036","740.5","416.5","2","1","0","1","1","","",""
"","psychophysics","32","109740","0.0-2.0-3.9-0.9","bsp","[""R""]","","","","","","null","key","null","null","16.686633333333155","740.5","416.5","2","1","0","1","1","","",""
"","psychophysics","33","114828","0.0-2.0-0.10","bsp","[""R""]","","","","","","4383","key","z","z","16.685940789473676","740.5","416.5","1","1","0","1","1","true","",""
"","psychophysics","34","115835","0.0-2.0-1.10","bsp","[""R""]","","","","","","null","key","null","null","16.686050847457608","740.5","416.5","1","1","0","1","1","","",""
"","psychophysics","35","116846","0.0-2.0-2.10-0.10","bsp","[""R""]","","","","","","null","key","null","null","16.68688333333339","740.5","416.5","1","1","0","1","1","","",""
"","psychophysics","36","120076","0.0-2.0-0.11","bsp","[""R""]","","","","","","2526","key","z","z","16.686171875000053","740.5","416.5","1","1","1","1","0","true","",""
"","psychophysics","37","121084","0.0-2.0-1.11","bsp","[""R""]","","","","","","null","key","null","null","16.687216666666547","740.5","416.5","1","1","1","1","0","","",""
"","psychophysics","38","122092","0.0-2.0-2.11-0.11","bsp","[""R""]","","","","","","null","key","null","null","16.686101694915184","740.5","416.5","1","1","1","1","0","","",""
"","psychophysics","39","124639","0.0-2.0-0.12","bsp","[""R""]","","","","","","1844","key","m","m","16.687513157894692","740.5","416.5","1","0","0","0","1","false","",""
"","psychophysics","40","125647","0.0-2.0-1.12","bsp","[""R""]","","","","","","null","key","null","null","16.685474576271176","740.5","416.5","1","0","0","0","1","","",""
"","psychophysics","41","126657","0.0-2.0-3.12-0.12","bsp","[""R""]","","","","","","null","key","null","null","16.687133333333136","740.5","416.5","1","0","0","0","1","","",""
"","psychophysics","42","129132","0.0-2.0-0.13","bsp","[""R""]","","","","","","1771","key","z","z","16.686095238095238","740.5","416.5","1","1","0","1","0","true","",""
"","psychophysics","43","130139","0.0-2.0-1.13","bsp","[""R""]","","","","","","null","key","null","null","16.68727118644066","740.5","416.5","1","1","0","1","0","","",""
"","psychophysics","44","131148","0.0-2.0-2.13-0.13","bsp","[""R""]","","","","","","null","key","null","null","16.68726666666674","740.5","416.5","1","1","0","1","0","","",""
"","psychophysics","45","133916","0.0-2.0-0.14","bsp","[""R""]","","","","","","2064","key","m","m","16.686018181818177","740.5","416.5","2","1","1","1","1","true","",""
"","psychophysics","46","134923","0.0-2.0-1.14","bsp","[""R""]","","","","","","null","key","null","null","16.686033898305002","740.5","416.5","2","1","1","1","1","","",""
"","psychophysics","47","135934","0.0-2.0-2.14-0.14","bsp","[""R""]","","","","","","null","key","null","null","16.68726666666674","740.5","416.5","2","1","1","1","1","","",""
"","psychophysics","48","138172","0.0-2.0-0.15","bsp","[""R""]","","","","","","1534","key","m","m","16.686330827067717","740.5","416.5","2","0","1","1","1","true","",""
"","psychophysics","49","139179","0.0-2.0-1.15","bsp","[""R""]","","","","","","null","key","null","null","16.68584745762706","740.5","416.5","2","0","1","1","1","","",""
"","psychophysics","50","140189","0.0-2.0-2.15-0.15","bsp","[""R""]","","","","","","null","key","null","null","16.686833333333198","740.5","416.5","2","0","1","1","1","","",""
"","psychophysics","51","142927","0.0-2.0-0.16","bsp","[""R""]","","","","","","2034","key","z","z","16.68579141104303","740.5","416.5","1","1","0","1","0","true","",""
"","psychophysics","52","143935","0.0-2.0-1.16","bsp","[""R""]","","","","","","null","key","null","null","16.684983050847283","740.5","416.5","1","1","0","1","0","","",""
"","psychophysics","53","144944","0.0-2.0-2.16-0.16","bsp","[""R""]","","","","","","null","key","null","null","16.68790000000008","740.5","416.5","1","1","0","1","0","","",""
"","psychophysics","54","149308","0.0-2.0-0.17","bsp","[""R""]","","","","","","3660","key","z","z","16.68579999999996","740.5","416.5","2","0","0","0","1","false","",""
"","psychophysics","55","150317","0.0-2.0-1.17","bsp","[""R""]","","","","","","null","key","null","null","16.686833333333198","740.5","416.5","2","0","0","0","1","","",""
"","psychophysics","56","151326","0.0-2.0-3.17-0.17","bsp","[""R""]","","","","","","null","key","null","null","16.68510169491529","740.5","416.5","2","0","0","0","1","","",""
"","psychophysics","57","153628","0.0-2.0-0.18","bsp","[""R""]","","","","","","1598","key","m","m","16.68649635036509","740.5","416.5","1","0","0","0","1","false","",""
"","psychophysics","58","154635","0.0-2.0-1.18","bsp","[""R""]","","","","","","null","key","null","null","16.68723728813594","740.5","416.5","1","0","0","0","1","","",""
"","psychophysics","59","155644","0.0-2.0-3.18-0.18","bsp","[""R""]","","","","","","null","key","null","null","16.686233333333316","740.5","416.5","1","0","0","0","1","","",""
"","psychophysics","60","157900","0.0-2.0-0.19","bsp","[""R""]","","","","","","1552","key","m","m","16.686447761194007","740.5","416.5","2","0","0","1","1","true","",""
"","psychophysics","61","158911","0.0-2.0-1.19","bsp","[""R""]","","","","","","null","key","null","null","16.687049999999967","740.5","416.5","2","0","0","1","1","","",""
"","psychophysics","62","159919","0.0-2.0-2.19-0.19","bsp","[""R""]","","","","","","null","key","null","null","16.68586440677942","740.5","416.5","2","0","0","1","1","","",""
"","psychophysics","63","162365","0.0-2.0-0.20","bsp","[""R""]","","","","","","1743","key","m","m","16.686376712328837","740.5","416.5","2","0","1","1","1","true","",""
"","psychophysics","64","163372","0.0-2.0-1.20","bsp","[""R""]","","","","","","null","key","null","null","16.685949152542705","740.5","416.5","2","0","1","1","1","","",""
"","psychophysics","65","164383","0.0-2.0-2.20-0.20","bsp","[""R""]","","","","","","null","key","null","null","16.687249999999768","740.5","416.5","2","0","1","1","1","","",""
"","psychophysics","66","166748","0.0-2.0-0.21","bsp","[""R""]","","","","","","1661","key","m","m","16.686364285714184","740.5","416.5","1","0","0","1","1","false","",""
"","psychophysics","67","167755","0.0-2.0-1.21","bsp","[""R""]","","","","","","null","key","null","null","16.686649999999887","740.5","416.5","1","0","0","1","1","","",""
"","psychophysics","68","168764","0.0-2.0-3.21-0.21","bsp","[""R""]","","","","","","null","key","null","null","16.686101694915433","740.5","416.5","1","0","0","1","1","","",""
"","psychophysics","69","172127","0.0-2.0-0.22","bsp","[""R""]","","","","","","2660","key","m","m","16.68625373134331","740.5","416.5","2","0","1","1","1","true","",""
"","psychophysics","70","173134","0.0-2.0-1.22","bsp","[""R""]","","","","","","null","key","null","null","16.68747457627146","740.5","416.5","2","0","1","1","1","","",""
"","psychophysics","71","174145","0.0-2.0-2.22-0.22","bsp","[""R""]","","","","","","null","key","null","null","16.687149999999868","740.5","416.5","2","0","1","1","1","","",""
"","psychophysics","72","177355","0.0-2.0-0.23","bsp","[""R""]","","","","","","2508","key","m","m","16.685942408377038","740.5","416.5","1","1","1","0","1","false","",""
"","psychophysics","73","178374","0.0-2.0-1.23","bsp","[""R""]","","","","","","null","key","null","null","16.685499999999593","740.5","416.5","1","1","1","0","1","","",""
"","psychophysics","74","179384","0.0-2.0-3.23-0.23","bsp","[""R""]","","","","","","null","key","null","null","16.6875999999999","740.5","416.5","1","1","1","0","1","","",""
"","psychophysics","75","181563","0.0-2.0-0.24","bsp","[""R""]","","","","","","1476","key","m","m","16.68599224806192","740.5","416.5","1","1","0","1","0","false","",""
"","psychophysics","76","182571","0.0-2.0-1.24","bsp","[""R""]","","","","","","null","key","null","null","16.687300000000203","740.5","416.5","1","1","0","1","0","","",""
"","psychophysics","77","183580","0.0-2.0-3.24-0.24","bsp","[""R""]","","","","","","null","key","null","null","16.687237288135446","740.5","416.5","1","1","0","1","0","","",""
"","psychophysics","78","186443","0.0-2.0-0.25","bsp","[""R""]","","","","","","2160","key","z","z","16.686426900584713","740.5","416.5","1","1","0","1","1","true","",""
"","psychophysics","79","187450","0.0-2.0-1.25","bsp","[""R""]","","","","","","null","key","null","null","16.68667796610162","740.5","416.5","1","1","0","1","1","","",""
"","psychophysics","80","188461","0.0-2.0-2.25-0.25","bsp","[""R""]","","","","","","null","key","null","null","16.68736666666664","740.5","416.5","1","1","0","1","1","","",""
"","psychophysics","81","192399","0.0-2.0-0.26","bsp","[""R""]","","","","","","3234","key","m","m","16.685540425531972","740.5","416.5","1","1","0","0","0","false","",""
"","psychophysics","82","193407","0.0-2.0-1.26","bsp","[""R""]","","","","","","null","key","null","null","16.685728813559546","740.5","416.5","1","1","0","0","0","","",""
"","psychophysics","83","194417","0.0-2.0-3.26-0.26","bsp","[""R""]","","","","","","null","key","null","null","16.686916666667095","740.5","416.5","1","1","0","0","0","","",""
"","psychophysics","84","197691","0.0-2.0-0.27","bsp","[""R""]","","","","","","2570","key","z","z","16.68538974358981","740.5","416.5","1","1","0","1","0","true","",""
"","psychophysics","85","198698","0.0-2.0-1.27","bsp","[""R""]","","","","","","null","key","null","null","16.685881355932274","740.5","416.5","1","1","0","1","0","","",""
"","psychophysics","86","199708","0.0-2.0-2.27-0.27","bsp","[""R""]","","","","","","null","key","null","null","16.687466666666538","740.5","416.5","1","1","0","1","0","","",""
"","psychophysics","87","202011","0.0-2.0-0.28","bsp","[""R""]","","","","","","1599","key","m","m","16.685839416058336","740.5","416.5","1","0","0","0","1","false","",""
"","psychophysics","88","203018","0.0-2.0-1.28","bsp","[""R""]","","","","","","null","key","null","null","16.685796610169483","740.5","416.5","1","0","0","0","1","","",""
"","psychophysics","89","204029","0.0-2.0-3.28-0.28","bsp","[""R""]","","","","","","null","key","null","null","16.686083333333467","740.5","416.5","1","0","0","0","1","","",""
"","psychophysics","90","206491","0.0-2.0-0.29","bsp","[""R""]","","","","","","1759","key","m","m","16.685773972602686","740.5","416.5","1","1","0","1","0","false","",""
"","psychophysics","91","207499","0.0-2.0-1.29","bsp","[""R""]","","","","","","null","key","null","null","16.68661666666691","740.5","416.5","1","1","0","1","0","","",""
"","psychophysics","92","208507","0.0-2.0-3.29-0.29","bsp","[""R""]","","","","","","null","key","null","null","16.68720338983023","740.5","416.5","1","1","0","1","0","","",""
"","psychophysics","93","210827","0.0-2.0-0.30","bsp","[""R""]","","","","","","1616","key","m","m","16.686152173913136","740.5","416.5","2","0","1","1","1","true","",""
"","psychophysics","94","211837","0.0-2.0-1.30","bsp","[""R""]","","","","","","null","key","null","null","16.686199999999857","740.5","416.5","2","0","1","1","1","","",""
"","psychophysics","95","212845","0.0-2.0-2.30-0.30","bsp","[""R""]","","","","","","null","key","null","null","16.68457627118668","740.5","416.5","2","0","1","1","1","","",""
"","psychophysics","96","214811","0.0-2.0-0.31","bsp","[""R""]","","","","","","1262","key","m","m","16.68597435897428","740.5","416.5","2","0","1","1","1","true","",""
"","psychophysics","97","215819","0.0-2.0-1.31","bsp","[""R""]","","","","","","null","key","null","null","16.685796610169483","740.5","416.5","2","0","1","1","1","","",""
"","psychophysics","98","216828","0.0-2.0-2.31-0.31","bsp","[""R""]","","","","","","null","key","null","null","16.686733333333297","740.5","416.5","2","0","1","1","1","","",""
"","psychophysics","99","219931","0.0-2.0-0.32","bsp","[""R""]","","","","","","2400","key","z","z","16.685837837837862","740.5","416.5","1","0","1","0","1","true","",""
"","psychophysics","100","220937","0.0-2.0-1.32","bsp","[""R""]","","","","","","null","key","null","null","16.685644067796755","740.5","416.5","1","0","1","0","1","","",""
"","psychophysics","101","221949","0.0-2.0-2.32-0.32","bsp","[""R""]","","","","","","null","key","null","null","16.68685000000017","740.5","416.5","1","0","1","0","1","","",""
"","psychophysics","102","225211","0.0-2.0-0.33","bsp","[""R""]","","","","","","2558","key","m","m","16.68587628865978","740.5","416.5","1","0","0","0","1","false","",""
"","psychophysics","103","226221","0.0-2.0-1.33","bsp","[""R""]","","","","","","null","key","null","null","16.6866333333334","740.5","416.5","1","0","0","0","1","","",""
"","psychophysics","104","227229","0.0-2.0-3.33-0.33","bsp","[""R""]","","","","","","null","key","null","null","16.687254237287807","740.5","416.5","1","0","0","0","1","","",""
"","psychophysics","105","229292","0.0-2.0-0.34","bsp","[""R""]","","","","","","1360","key","m","m","16.686520325203333","740.5","416.5","2","1","1","1","1","true","",""
"","psychophysics","106","230299","0.0-2.0-1.34","bsp","[""R""]","","","","","","null","key","null","null","16.686135593220154","740.5","416.5","2","1","1","1","1","","",""
"","psychophysics","107","231310","0.0-2.0-2.34-0.34","bsp","[""R""]","","","","","","null","key","null","null","16.686983333333046","740.5","416.5","2","1","1","1","1","","",""
"","psychophysics","108","234043","0.0-2.0-0.35","bsp","[""R""]","","","","","","2030","key","z","z","16.6858703703704","740.5","416.5","1","0","1","1","1","true","",""
"","psychophysics","109","235051","0.0-2.0-1.35","bsp","[""R""]","","","","","","null","key","null","null","16.686299999999754","740.5","416.5","1","0","1","1","1","","",""
"","psychophysics","110","236060","0.0-2.0-2.35-0.35","bsp","[""R""]","","","","","","null","key","null","null","16.687220338983085","740.5","416.5","1","0","1","1","1","","",""
"","psychophysics","111","240332","0.0-2.0-0.36","bsp","[""R""]","","","","","","3565","key","m","m","16.686113725490205","740.5","416.5","1","1","1","0","1","false","",""
"","psychophysics","112","241339","0.0-2.0-1.36","bsp","[""R""]","","","","","","null","key","null","null","16.686800000000222","740.5","416.5","1","1","1","0","1","","",""
"","psychophysics","113","242348","0.0-2.0-3.36-0.36","bsp","[""R""]","","","","","","null","key","null","null","16.68533898305081","740.5","416.5","1","1","1","0","1","","",""
"","psychophysics","114","244267","0.0-2.0-0.37","bsp","[""R""]","","","","","","1215","key","m","m","16.685947368421086","740.5","416.5","2","1","0","1","0","true","",""
"","psychophysics","115","245276","0.0-2.0-1.37","bsp","[""R""]","","","","","","null","key","null","null","16.687199999999816","740.5","416.5","2","1","0","1","0","","",""
"","psychophysics","116","246286","0.0-2.0-2.37-0.37","bsp","[""R""]","","","","","","null","key","null","null","16.685627118643904","740.5","416.5","2","1","0","1","0","","",""
"","psychophysics","117","248123","0.0-2.0-0.38","bsp","[""R""]","","","","","","1134","key","m","m","16.686770642201637","740.5","416.5","1","0","1","1","1","false","",""
"","psychophysics","118","249132","0.0-2.0-1.38","bsp","[""R""]","","","","","","null","key","null","null","16.68669999999984","740.5","416.5","1","0","1","1","1","","",""
"","psychophysics","119","250141","0.0-2.0-3.38-0.38","bsp","[""R""]","","","","","","null","key","null","null","16.68559322033869","740.5","416.5","1","0","1","1","1","","",""
"","psychophysics","120","252302","0.0-2.0-0.39","bsp","[""R""]","","","","","","1457","key","m","m","16.686488372093027","740.5","416.5","1","1","1","0","1","false","",""
"","psychophysics","121","253309","0.0-2.0-1.39","bsp","[""R""]","","","","","","null","key","null","null","16.68615254237301","740.5","416.5","1","1","1","0","1","","",""
"","psychophysics","122","254320","0.0-2.0-3.39-0.39","bsp","[""R""]","","","","","","null","key","null","null","16.68671666666681","740.5","416.5","1","1","1","0","1","","",""
"","psychophysics","123","255979","0.0-2.0-0.40","bsp","[""R""]","","","","","","955","key","m","m","16.685816326530528","740.5","416.5","2","1","1","1","1","true","",""
"","psychophysics","124","256990","0.0-2.0-1.40","bsp","[""R""]","","","","","","null","key","null","null","16.686333333333703","740.5","416.5","2","1","1","1","1","","",""
"","psychophysics","125","257999","0.0-2.0-2.40-0.40","bsp","[""R""]","","","","","","null","key","null","null","16.685966101695065","740.5","416.5","2","1","1","1","1","","",""
"","psychophysics","126","259740","0.0-2.0-0.41","bsp","[""R""]","","","","","","1038","key","m","m","16.686504854368852","740.5","416.5","1","0","1","1","0","false","",""
"","psychophysics","127","260747","0.0-2.0-1.41","bsp","[""R""]","","","","","","null","key","null","null","16.687199999999816","740.5","416.5","1","0","1","1","0","","",""
"","psychophysics","128","261755","0.0-2.0-3.41-0.41","bsp","[""R""]","","","","","","null","key","null","null","16.68625423728816","740.5","416.5","1","0","1","1","0","","",""
"","psychophysics","129","263582","0.0-2.0-0.42","bsp","[""R""]","","","","","","1124","key","m","m","16.6865871559632","740.5","416.5","2","1","1","0","1","true","",""
"","psychophysics","130","264589","0.0-2.0-1.42","bsp","[""R""]","","","","","","null","key","null","null","16.685559322033473","740.5","416.5","2","1","1","0","1","","",""
"","psychophysics","131","265600","0.0-2.0-2.42-0.42","bsp","[""R""]","","","","","","null","key","null","null","16.68638333333365","740.5","416.5","2","1","1","0","1","","",""
"","psychophysics","132","267503","0.0-2.0-0.43","bsp","[""R""]","","","","","","1200","key","m","m","16.687097345132678","740.5","416.5","1","1","1","1","1","false","",""
"","psychophysics","133","268510","0.0-2.0-1.43","bsp","[""R""]","","","","","","null","key","null","null","16.686898305084778","740.5","416.5","1","1","1","1","1","","",""
"","psychophysics","134","269521","0.0-2.0-3.43-0.43","bsp","[""R""]","","","","","","null","key","null","null","16.687066666666457","740.5","416.5","1","1","1","1","1","","",""
"","psychophysics","135","271741","0.0-2.0-0.44","bsp","[""R""]","","","","","","1517","key","m","m","16.685734848484792","740.5","416.5","2","1","0","1","0","true","",""
"","psychophysics","136","272747","0.0-2.0-1.44","bsp","[""R""]","","","","","","null","key","null","null","16.685661016948625","740.5","416.5","2","1","0","1","0","","",""
"","psychophysics","137","273759","0.0-2.0-2.44-0.44","bsp","[""R""]","","","","","","null","key","null","null","16.686433333334087","740.5","416.5","2","1","0","1","0","","",""
"","psychophysics","138","276046","0.0-2.0-0.45","bsp","[""R""]","","","","","","1584","key","m","m","16.685448529411907","740.5","416.5","2","1","0","1","1","true","",""
"","psychophysics","139","277053","0.0-2.0-1.45","bsp","[""R""]","","","","","","null","key","null","null","16.686593220338334","740.5","416.5","2","1","0","1","1","","",""
"","psychophysics","140","278064","0.0-2.0-2.45-0.45","bsp","[""R""]","","","","","","null","key","null","null","16.68658333333345","740.5","416.5","2","1","0","1","1","","",""
"","psychophysics","141","280427","0.0-2.0-0.46","bsp","[""R""]","","","","","","1660","key","z","z","16.685942857142905","740.5","416.5","1","1","0","1","1","true","",""
"","psychophysics","142","281434","0.0-2.0-1.46","bsp","[""R""]","","","","","","null","key","null","null","16.687616666666386","740.5","416.5","1","1","0","1","1","","",""
"","psychophysics","143","282444","0.0-2.0-2.46-0.46","bsp","[""R""]","","","","","","null","key","null","null","16.686016949152148","740.5","416.5","1","1","0","1","1","","",""
"","psychophysics","144","284939","0.0-2.0-0.47","bsp","[""R""]","","","","","","1793","key","z","z","16.68591946308718","740.5","416.5","1","1","0","1","0","true","",""
"","psychophysics","145","285947","0.0-2.0-1.47","bsp","[""R""]","","","","","","null","key","null","null","16.68550847457639","740.5","416.5","1","1","0","1","0","","",""
"","psychophysics","146","286958","0.0-2.0-2.47-0.47","bsp","[""R""]","","","","","","null","key","null","null","16.686633333333884","740.5","416.5","1","1","0","1","0","","",""
"","psychophysics","147","290171","0.0-2.0-0.48","bsp","[""R""]","","","","","","2509","key","m","m","16.68584816753913","740.5","416.5","1","0","0","1","0","false","",""
"","psychophysics","148","291179","0.0-2.0-1.48","bsp","[""R""]","","","","","","null","key","null","null","16.68669999999984","740.5","416.5","1","0","0","1","0","","",""
"","psychophysics","149","292187","0.0-2.0-3.48-0.48","bsp","[""R""]","","","","","","null","key","null","null","16.685915254236996","740.5","416.5","1","0","0","1","0","","",""
"","psychophysics","150","294251","0.0-2.0-0.49","bsp","[""R""]","","","","","","1360","key","z","z","16.686398373983472","740.5","416.5","2","0","0","1","0","false","",""
"","psychophysics","151","295257","0.0-2.0-1.49","bsp","[""R""]","","","","","","null","key","null","null","16.684288135593583","740.5","416.5","2","0","0","1","0","","",""
"","psychophysics","152","296268","0.0-2.0-3.49-0.49","bsp","[""R""]","","","","","","null","key","null","null","16.685733333333822","740.5","416.5","2","0","0","1","0","","",""
"","psychophysics","153","298379","0.0-2.0-0.50","bsp","[""R""]","","","","","","1408","key","z","z","16.685768000000156","740.5","416.5","1","1","0","1","1","true","",""
"","psychophysics","154","299388","0.0-2.0-1.50","bsp","[""R""]","","","","","","null","key","null","null","16.685999999999574","740.5","416.5","1","1","0","1","1","","",""
"","psychophysics","155","300396","0.0-2.0-2.50-0.50","bsp","[""R""]","","","","","","null","key","null","null","16.685542372881113","740.5","416.5","1","1","0","1","1","","",""
"","psychophysics","156","302682","0.0-2.0-0.51","bsp","[""R""]","","","","","","1584","key","z","z","16.68650000000001","740.5","416.5","2","1","0","1","1","false","",""
"","psychophysics","157","303693","0.0-2.0-1.51","bsp","[""R""]","","","","","","null","key","null","null","16.68676666666676","740.5","416.5","2","1","0","1","1","","",""
"","psychophysics","158","304700","0.0-2.0-3.51-0.51","bsp","[""R""]","","","","","","null","key","null","null","16.68625423728816","740.5","416.5","2","1","0","1","1","","",""
"","psychophysics","159","307755","0.0-2.0-0.52","bsp","[""R""]","","","","","","2351","key","m","m","16.685989010989204","740.5","416.5","1","0","1","0","1","false","",""
"","psychophysics","160","308762","0.0-2.0-1.52","bsp","[""R""]","","","","","","null","key","null","null","16.68633898305095","740.5","416.5","1","0","1","0","1","","",""
"","psychophysics","161","309771","0.0-2.0-3.52-0.52","bsp","[""R""]","","","","","","null","key","null","null","16.686066666666495","740.5","416.5","1","0","1","0","1","","",""
"","psychophysics","162","311979","0.0-2.0-0.53","bsp","[""R""]","","","","","","1504","key","m","m","16.686351145038252","740.5","416.5","2","0","1","1","1","true","",""
"","psychophysics","163","312987","0.0-2.0-1.53","bsp","[""R""]","","","","","","null","key","null","null","16.687366666667124","740.5","416.5","2","0","1","1","1","","",""
"","psychophysics","164","313996","0.0-2.0-2.53-0.53","bsp","[""R""]","","","","","","null","key","null","null","16.685135593220505","740.5","416.5","2","0","1","1","1","","",""
"","psychophysics","165","316571","0.0-2.0-0.54","bsp","[""R""]","","","","","","1872","key","z","z","16.686130718954267","740.5","416.5","2","1","0","0","1","false","",""
"","psychophysics","166","317579","0.0-2.0-1.54","bsp","[""R""]","","","","","","null","key","null","null","16.68693333333358","740.5","416.5","2","1","0","0","1","","",""
"","psychophysics","167","318588","0.0-2.0-3.54-0.54","bsp","[""R""]","","","","","","null","key","null","null","16.686067796610217","740.5","416.5","2","1","0","0","1","","",""
"","psychophysics","168","320715","0.0-2.0-0.55","bsp","[""R""]","","","","","","1420","key","m","m","16.68625196850424","740.5","416.5","2","1","1","1","1","true","",""
"","psychophysics","169","321722","0.0-2.0-1.55","bsp","[""R""]","","","","","","null","key","null","null","16.686305084745243","740.5","416.5","2","1","1","1","1","","",""
"","psychophysics","170","322732","0.0-2.0-2.55-0.55","bsp","[""R""]","","","","","","null","key","null","null","16.687149999999868","740.5","416.5","2","1","1","1","1","","",""
"","psychophysics","171","325131","0.0-2.0-0.56","bsp","[""R""]","","","","","","1696","key","z","z","16.68559154929572","740.5","416.5","1","0","1","1","1","true","",""
"","psychophysics","172","326138","0.0-2.0-1.56","bsp","[""R""]","","","","","","null","key","null","null","16.68733333333318","740.5","416.5","1","0","1","1","1","","",""
"","psychophysics","173","327147","0.0-2.0-2.56-0.56","bsp","[""R""]","","","","","","null","key","null","null","16.68620338983108","740.5","416.5","1","0","1","1","1","","",""
"","psychophysics","174","329707","0.0-2.0-0.57","bsp","[""R""]","","","","","","1857","key","z","z","16.68642483660122","740.5","416.5","2","1","0","0","1","false","",""
"","psychophysics","175","330714","0.0-2.0-1.57","bsp","[""R""]","","","","","","null","key","null","null","16.68476271186462","740.5","416.5","2","1","0","0","1","","",""
"","psychophysics","176","331725","0.0-2.0-3.57-0.57","bsp","[""R""]","","","","","","null","key","null","null","16.687000000000506","740.5","416.5","2","1","0","0","1","","",""
"","psychophysics","177","333802","0.0-2.0-0.58","bsp","[""R""]","","","","","","1374","key","z","z","16.684097560975374","740.5","416.5","2","1","0","0","0","false","",""
"","psychophysics","178","334812","0.0-2.0-1.58","bsp","[""R""]","","","","","","null","key","null","null","16.687283333332743","740.5","416.5","2","1","0","0","0","","",""
"","psychophysics","179","335820","0.0-2.0-3.58-0.58","bsp","[""R""]","","","","","","null","key","null","null","16.686016949152148","740.5","416.5","2","1","0","0","0","","",""
"","psychophysics","180","338202","0.0-2.0-0.59","bsp","[""R""]","","","","","","1679","key","m","m","16.686105633802995","740.5","416.5","2","1","0","1","1","true","",""
"","psychophysics","181","339209","0.0-2.0-1.59","bsp","[""R""]","","","","","","null","key","null","null","16.685864406778926","740.5","416.5","2","1","0","1","1","","",""
"","psychophysics","182","340219","0.0-2.0-2.59-0.59","bsp","[""R""]","","","","","","null","key","null","null","16.68611666666693","740.5","416.5","2","1","0","1","1","","",""
"","psychophysics","183","342747","0.0-2.0-0.60","bsp","[""R""]","","","","","","1825","key","m","m","16.68526666666653","740.5","416.5","2","0","0","1","0","true","",""
"","psychophysics","184","343756","0.0-2.0-1.60","bsp","[""R""]","","","","","","null","key","null","null","16.687149999999868","740.5","416.5","2","0","0","1","0","","",""
"","psychophysics","185","344764","0.0-2.0-2.60-0.60","bsp","[""R""]","","","","","","null","key","null","null","16.6857457627124","740.5","416.5","2","0","0","1","0","","",""
"","psychophysics","186","346394","0.0-2.0-0.61","bsp","[""R""]","","","","","","927","key","z","z","16.68659793814409","740.5","416.5","1","0","0","1","1","true","",""
"","psychophysics","187","347401","0.0-2.0-1.61","bsp","[""R""]","","","","","","null","key","null","null","16.686271186441505","740.5","416.5","1","0","0","1","1","","",""
"","psychophysics","188","348411","0.0-2.0-2.61-0.61","bsp","[""R""]","","","","","","null","key","null","null","16.687283333333713","740.5","416.5","1","0","0","1","1","","",""
"","psychophysics","189","356123","0.0-2.0-0.62","bsp","[""R""]","","","","","","7008","key","m","m","16.686021691973956","740.5","416.5","1","0","1","0","1","false","",""
"","psychophysics","190","357131","0.0-2.0-1.62","bsp","[""R""]","","","","","","null","key","null","null","16.686033898305496","740.5","416.5","1","0","1","0","1","","",""
"","psychophysics","191","358142","0.0-2.0-3.62-0.62","bsp","[""R""]","","","","","","null","key","null","null","16.686616666666428","740.5","416.5","1","0","1","0","1","","",""
"","psychophysics","192","359708","0.0-2.0-0.63","bsp","[""R""]","","","","","","863","key","z","z","16.685989247311422","740.5","416.5","1","0","0","1","1","true","",""
"","psychophysics","193","360715","0.0-2.0-1.63","bsp","[""R""]","","","","","","null","key","null","null","16.685305084746087","740.5","416.5","1","0","0","1","1","","",""
"","psychophysics","194","361727","0.0-2.0-2.63-0.63","bsp","[""R""]","","","","","","null","key","null","null","16.68741666666659","740.5","416.5","1","0","0","1","1","","",""
"","psychophysics","195","363819","0.0-2.0-0.64","bsp","[""R""]","","","","","","1389","key","z","z","16.6856935483872","740.5","416.5","1","0","1","1","1","true","",""
"","psychophysics","196","364827","0.0-2.0-1.64","bsp","[""R""]","","","","","","null","key","null","null","16.68691525423714","740.5","416.5","1","0","1","1","1","","",""
"","psychophysics","197","365836","0.0-2.0-2.64-0.64","bsp","[""R""]","","","","","","null","key","null","null","16.685766666665828","740.5","416.5","1","0","1","1","1","","",""
"","psychophysics","198","367819","0.0-2.0-0.65","bsp","[""R""]","","","","","","1280","key","m","m","16.68609322033876","740.5","416.5","1","0","0","1","0","false","",""
"","psychophysics","199","368827","0.0-2.0-1.65","bsp","[""R""]","","","","","","null","key","null","null","16.684627118644748","740.5","416.5","1","0","0","1","0","","",""
"","psychophysics","200","369837","0.0-2.0-3.65-0.65","bsp","[""R""]","","","","","","null","key","null","null","16.68701666666699","740.5","416.5","1","0","0","1","0","","",""
"","psychophysics","201","371851","0.0-2.0-0.66","bsp","[""R""]","","","","","","1310","key","m","m","16.685344537814977","740.5","416.5","1","0","1","0","0","false","",""
"","psychophysics","202","372859","0.0-2.0-1.66","bsp","[""R""]","","","","","","null","key","null","null","16.687300000000203","740.5","416.5","1","0","1","0","0","","",""
"","psychophysics","203","373867","0.0-2.0-3.66-0.66","bsp","[""R""]","","","","","","null","key","null","null","16.68613559321966","740.5","416.5","1","0","1","0","0","","",""
"","psychophysics","204","375963","0.0-2.0-0.67","bsp","[""R""]","","","","","","1392","key","m","m","16.686104000000284","740.5","416.5","2","0","1","1","1","true","",""
"","psychophysics","205","376970","0.0-2.0-1.67","bsp","[""R""]","","","","","","null","key","null","null","16.68572881356004","740.5","416.5","2","0","1","1","1","","",""
"","psychophysics","206","377979","0.0-2.0-2.67-0.67","bsp","[""R""]","","","","","","null","key","null","null","16.6867499999993","740.5","416.5","2","0","1","1","1","","",""
"","psychophysics","207","381534","0.0-2.0-0.68","bsp","[""R""]","","","","","","2853","key","z","z","16.68589622641525","740.5","416.5","1","1","0","1","0","true","",""
"","psychophysics","208","382541","0.0-2.0-1.68","bsp","[""R""]","","","","","","null","key","null","null","16.686322033898588","740.5","416.5","1","1","0","1","0","","",""
"","psychophysics","209","383552","0.0-2.0-2.68-0.68","bsp","[""R""]","","","","","","null","key","null","null","16.687216666666792","740.5","416.5","1","1","0","1","0","","",""
"","psychophysics","210","386123","0.0-2.0-0.69","bsp","[""R""]","","","","","","1867","key","m","m","16.686281045751564","740.5","416.5","2","0","0","1","1","true","",""
"","psychophysics","211","387131","0.0-2.0-1.69","bsp","[""R""]","","","","","","null","key","null","null","16.68657627118696","740.5","416.5","2","0","0","1","1","","",""
"","psychophysics","212","388140","0.0-2.0-2.69-0.69","bsp","[""R""]","","","","","","null","key","null","null","16.686433333333117","740.5","416.5","2","0","0","1","1","","",""
"","psychophysics","213","390651","0.0-2.0-0.70","bsp","[""R""]","","","","","","1808","key","m","m","16.68594630872487","740.5","416.5","1","0","1","1","0","false","",""
"","psychophysics","214","391661","0.0-2.0-1.70","bsp","[""R""]","","","","","","null","key","null","null","16.68703333333348","740.5","416.5","1","0","1","1","0","","",""
"","psychophysics","215","392669","0.0-2.0-3.70-0.70","bsp","[""R""]","","","","","","null","key","null","null","16.68642372881374","740.5","416.5","1","0","1","1","0","","",""
"","psychophysics","216","394955","0.0-2.0-0.71","bsp","[""R""]","","","","","","1582","key","m","m","16.6859999999998","740.5","416.5","1","0","1","0","0","false","",""
"","psychophysics","217","395963","0.0-2.0-1.71","bsp","[""R""]","","","","","","null","key","null","null","16.686847457627696","740.5","416.5","1","0","1","0","0","","",""
"","psychophysics","218","396971","0.0-2.0-3.71-0.71","bsp","[""R""]","","","","","","null","key","null","null","16.68563333333295","740.5","416.5","1","0","1","0","0","","",""
"","psychophysics","219","398811","0.0-2.0-0.72","bsp","[""R""]","","","","","","1136","key","z","z","16.68606422018311","740.5","416.5","2","0","0","1","1","false","",""
"","psychophysics","220","399820","0.0-2.0-1.72","bsp","[""R""]","","","","","","null","key","null","null","16.686983333333046","740.5","416.5","2","0","0","1","1","","",""
"","psychophysics","221","400830","0.0-2.0-3.72-0.72","bsp","[""R""]","","","","","","null","key","null","null","16.686067796610217","740.5","416.5","2","0","0","1","1","","",""
"","psychophysics","222","403435","0.0-2.0-0.73","bsp","[""R""]","","","","","","1901","key","z","z","16.68621935483872","740.5","416.5","1","1","0","1","0","true","",""
"","psychophysics","223","404442","0.0-2.0-1.73","bsp","[""R""]","","","","","","null","key","null","null","16.68695000000007","740.5","416.5","1","1","0","1","0","","",""
"","psychophysics","224","405450","0.0-2.0-2.73-0.73","bsp","[""R""]","","","","","","null","key","null","null","16.685694915253347","740.5","416.5","1","1","0","1","0","","",""
"","psychophysics","225","407755","0.0-2.0-0.74","bsp","[""R""]","","","","","","1601","key","m","m","16.686510948905294","740.5","416.5","2","0","0","1","1","true","",""
"","psychophysics","226","408764","0.0-2.0-1.74","bsp","[""R""]","","","","","","null","key","null","null","16.687349999999665","740.5","416.5","2","0","0","1","1","","",""
"","psychophysics","227","409773","0.0-2.0-2.74-0.74","bsp","[""R""]","","","","","","null","key","null","null","16.686016949153135","740.5","416.5","2","0","0","1","1","","",""
"","psychophysics","228","411707","0.0-2.0-0.75","bsp","[""R""]","","","","","","1230","key","m","m","16.686547826086777","740.5","416.5","2","1","1","1","1","true","",""
"","psychophysics","229","412714","0.0-2.0-1.75","bsp","[""R""]","","","","","","null","key","null","null","16.687118644068427","740.5","416.5","2","1","1","1","1","","",""
"","psychophysics","230","413726","0.0-2.0-2.75-0.75","bsp","[""R""]","","","","","","null","key","null","null","16.68658333333345","740.5","416.5","2","1","1","1","1","","",""
"","psychophysics","231","415947","0.0-2.0-0.76","bsp","[""R""]","","","","","","1518","key","m","m","16.68645454545472","740.5","416.5","2","0","1","0","1","true","",""
"","psychophysics","232","416957","0.0-2.0-1.76","bsp","[""R""]","","","","","","null","key","null","null","16.687049999999967","740.5","416.5","2","0","1","0","1","","",""
"","psychophysics","233","417966","0.0-2.0-2.76-0.76","bsp","[""R""]","","","","","","null","key","null","null","16.68454237288097","740.5","416.5","2","0","1","0","1","","",""
"","psychophysics","234","420539","0.0-2.0-0.77","bsp","[""R""]","","","","","","1870","key","m","m","16.68641830065358","740.5","416.5","2","0","1","1","1","true","",""
"","psychophysics","235","421547","0.0-2.0-1.77","bsp","[""R""]","","","","","","null","key","null","null","16.68669999999984","740.5","416.5","2","0","1","1","1","","",""
"","psychophysics","236","422556","0.0-2.0-2.77-0.77","bsp","[""R""]","","","","","","null","key","null","null","16.686050847457857","740.5","416.5","2","0","1","1","1","","",""
"","psychophysics","237","424491","0.0-2.0-0.78","bsp","[""R""]","","","","","","1232","key","z","z","16.686660869565348","740.5","416.5","1","1","1","1","1","true","",""
"","psychophysics","238","425500","0.0-2.0-1.78","bsp","[""R""]","","","","","","null","key","null","null","16.687116666666892","740.5","416.5","1","1","1","1","1","","",""
"","psychophysics","239","426508","0.0-2.0-2.78-0.78","bsp","[""R""]","","","","","","null","key","null","null","16.68488135593213","740.5","416.5","1","1","1","1","1","","",""
"","psychophysics","240","431163","0.0-2.0-0.79","bsp","[""R""]","","","","","","3952","key","m","m","16.68611151079137","740.5","416.5","1","0","0","0","1","false","",""
"","psychophysics","241","432170","0.0-2.0-1.79","bsp","[""R""]","","","","","","null","key","null","null","16.687152542372164","740.5","416.5","1","0","0","0","1","","",""
"","psychophysics","242","433179","0.0-2.0-3.79-0.79","bsp","[""R""]","","","","","","null","key","null","null","16.687366666667124","740.5","416.5","1","0","0","0","1","","",""
"","psychophysics","243","435435","0.0-2.0-0.80","bsp","[""R""]","","","","","","1552","key","m","m","16.68546268656683","740.5","416.5","2","1","1","1","1","true","",""
"","psychophysics","244","436443","0.0-2.0-1.80","bsp","[""R""]","","","","","","null","key","null","null","16.687050847457012","740.5","416.5","2","1","1","1","1","","",""
"","psychophysics","245","437451","0.0-2.0-2.80-0.80","bsp","[""R""]","","","","","","null","key","null","null","16.686500000000038","740.5","416.5","2","1","1","1","1","","",""
"","psychophysics","246","439995","0.0-2.0-0.81","bsp","[""R""]","","","","","","1840","key","z","z","16.68654304635765","740.5","416.5","1","1","0","1","1","true","",""
"","psychophysics","247","441002","0.0-2.0-1.81","bsp","[""R""]","","","","","","null","key","null","null","16.686633333332914","740.5","416.5","1","1","0","1","1","","",""
"","psychophysics","248","442011","0.0-2.0-2.81-0.81","bsp","[""R""]","","","","","","null","key","null","null","16.68627118644052","740.5","416.5","1","1","0","1","1","","",""
"","psychophysics","249","448027","0.0-2.0-0.82","bsp","[""R""]","","","","","","5312","key","m","m","16.686083333333308","740.5","416.5","2","0","0","0","1","true","",""
"","psychophysics","250","449033","0.0-2.0-1.82","bsp","[""R""]","","","","","","null","key","null","null","16.685677966100986","740.5","416.5","2","0","0","0","1","","",""
"","psychophysics","251","450045","0.0-2.0-2.82-0.82","bsp","[""R""]","","","","","","null","key","null","null","16.68695000000007","740.5","416.5","2","0","0","0","1","","",""
"","psychophysics","252","453083","0.0-2.0-0.83","bsp","[""R""]","","","","","","2335","key","z","z","16.685911602210073","740.5","416.5","1","0","1","0","1","true","",""
"","psychophysics","253","454090","0.0-2.0-1.83","bsp","[""R""]","","","","","","null","key","null","null","16.686677966102113","740.5","416.5","1","0","1","0","1","","",""
"","psychophysics","254","455101","0.0-2.0-2.83-0.83","bsp","[""R""]","","","","","","null","key","null","null","16.686716666666324","740.5","416.5","1","0","1","0","1","","",""
"","psychophysics","255","457404","0.0-2.0-0.84","bsp","[""R""]","","","","","","1599","key","m","m","16.685883211678515","740.5","416.5","2","1","1","1","1","true","",""
"","psychophysics","256","458411","0.0-2.0-1.84","bsp","[""R""]","","","","","","null","key","null","null","16.6861186440673","740.5","416.5","2","1","1","1","1","","",""
"","psychophysics","257","459423","0.0-2.0-2.84-0.84","bsp","[""R""]","","","","","","null","key","null","null","16.68640000000014","740.5","416.5","2","1","1","1","1","","",""
"","psychophysics","258","463883","0.0-2.0-0.85","bsp","[""R""]","","","","","","3756","key","m","m","16.68579699248128","740.5","416.5","2","1","1","0","1","true","",""
"","psychophysics","259","464890","0.0-2.0-1.85","bsp","[""R""]","","","","","","null","key","null","null","16.685271186441366","740.5","416.5","2","1","1","0","1","","",""
"","psychophysics","260","465900","0.0-2.0-2.85-0.85","bsp","[""R""]","","","","","","null","key","null","null","16.68685000000017","740.5","416.5","2","1","1","0","1","","",""
"","psychophysics","261","469307","0.0-2.0-0.86","bsp","[""R""]","","","","","","2703","key","z","z","16.686098522167445","740.5","416.5","1","0","1","1","1","true","",""
"","psychophysics","262","470315","0.0-2.0-1.86","bsp","[""R""]","","","","","","null","key","null","null","16.68627118644052","740.5","416.5","1","0","1","1","1","","",""
"","psychophysics","263","471324","0.0-2.0-2.86-0.86","bsp","[""R""]","","","","","","null","key","null","null","16.68605000000001","740.5","416.5","1","0","1","1","1","","",""
"","psychophysics","264","475742","0.0-2.0-0.87","bsp","[""R""]","","","","","","3715","key","z","z","16.686318181818052","740.5","416.5","1","0","0","1","1","true","",""
"","psychophysics","265","476750","0.0-2.0-1.87","bsp","[""R""]","","","","","","null","key","null","null","16.687406779660535","740.5","416.5","1","0","0","1","1","","",""
"","psychophysics","266","477760","0.0-2.0-2.87-0.87","bsp","[""R""]","","","","","","null","key","null","null","16.687116666665922","740.5","416.5","1","0","0","1","1","","",""
"","psychophysics","267","481003","0.0-2.0-0.88","bsp","[""R""]","","","","","","2540","key","m","m","16.68586010362686","740.5","416.5","1","1","0","0","1","false","",""
"","psychophysics","268","482012","0.0-2.0-1.88","bsp","[""R""]","","","","","","null","key","null","null","16.68528813559274","740.5","416.5","1","1","0","0","1","","",""
"","psychophysics","269","483021","0.0-2.0-3.88-0.88","bsp","[""R""]","","","","","","null","key","null","null","16.686266666667265","740.5","416.5","1","1","0","0","1","","",""
"","psychophysics","270","485499","0.0-2.0-0.89","bsp","[""R""]","","","","","","1775","key","m","m","16.68605442176855","740.5","416.5","1","0","0","0","0","false","",""
"","psychophysics","271","486507","0.0-2.0-1.89","bsp","[""R""]","","","","","","null","key","null","null","16.687699999999797","740.5","416.5","1","0","0","0","0","","",""
"","psychophysics","272","487515","0.0-2.0-3.89-0.89","bsp","[""R""]","","","","","","null","key","null","null","16.686118644068287","740.5","416.5","1","0","0","0","0","","",""
"","html-keyboard-response","273","493611","0.0-2.0-4.89-0.89","bsp","[""R""]","","","","","","6090","","","g","","","","","","","","","","<p>You have finished block 1 of 5.<p>You correctly predicted 59% of the races.<p>On the next screen, you will be given a 30 second break. Press the <b>g</b> key to start your break.",""
"","html-keyboard-response","274","494614","0.0-2.0-4.89-1.89-0.89","bsp","[""R""]","","","","","","null","","","null","","","","","","","","","","<p>The experiment will resume in 30 seconds. ",""
"","html-keyboard-response","275","495619","0.0-2.0-4.89-1.89-1.89","bsp","[""R""]","","","","","","null","","","null","","","","","","","","","","<p>The experiment will resume in 29 seconds. ",""
"","html-keyboard-response","276","496621","0.0-2.0-4.89-1.89-2.89","bsp","[""R""]","","","","","","null","","","null","","","","","","","","","","<p>The experiment will resume in 28 seconds. ",""
"","html-keyboard-response","277","497624","0.0-2.0-4.89-1.89-3.89","bsp","[""R""]","","","","","","null","","","null","","","","","","","","","","<p>The experiment will resume in 27 seconds. ",""
"","html-keyboard-response","278","498626","0.0-2.0-4.89-1.89-4.89","bsp","[""R""]","","","","","","null","","","null","","","","","","","","","","<p>The experiment will resume in 26 seconds. ",""
"","html-keyboard-response","279","499628","0.0-2.0-4.89-1.89-5.89","bsp","[""R""]","","","","","","null","","","null","","","","","","","","","","<p>The experiment will resume in 25 seconds. ",""
"","html-keyboard-response","280","500629","0.0-2.0-4.89-1.89-6.89","bsp","[""R""]","","","","","","null","","","null","","","","","","","","","","<p>The experiment will resume in 24 seconds. ",""
"","html-keyboard-response","281","501631","0.0-2.0-4.89-1.89-7.89","bsp","[""R""]","","","","","","null","","","null","","","","","","","","","","<p>The experiment will resume in 23 seconds. ",""
"","html-keyboard-response","282","502633","0.0-2.0-4.89-1.89-8.89","bsp","[""R""]","","","","","","null","","","null","","","","","","","","","","<p>The experiment will resume in 22 seconds. ",""
"","html-keyboard-response","283","503635","0.0-2.0-4.89-1.89-9.89","bsp","[""R""]","","","","","","null","","","null","","","","","","","","","","<p>The experiment will resume in 21 seconds. ",""
"","html-keyboard-response","284","504636","0.0-2.0-4.89-1.89-10.89","bsp","[""R""]","","","","","","null","","","null","","","","","","","","","","<p>The experiment will resume in 20 seconds. ",""
"","html-keyboard-response","285","505639","0.0-2.0-4.89-1.89-11.89","bsp","[""R""]","","","","","","null","","","null","","","","","","","","","","<p>The experiment will resume in 19 seconds. ",""
"","html-keyboard-response","286","506640","0.0-2.0-4.89-1.89-12.89","bsp","[""R""]","","","","","","null","","","null","","","","","","","","","","<p>The experiment will resume in 18 seconds. ",""
"","html-keyboard-response","287","507642","0.0-2.0-4.89-1.89-13.89","bsp","[""R""]","","","","","","null","","","null","","","","","","","","","","<p>The experiment will resume in 17 seconds. ",""
"","html-keyboard-response","288","508645","0.0-2.0-4.89-1.89-14.89","bsp","[""R""]","","","","","","null","","","null","","","","","","","","","","<p>The experiment will resume in 16 seconds. ",""
"","html-keyboard-response","289","509648","0.0-2.0-4.89-1.89-15.89","bsp","[""R""]","","","","","","null","","","null","","","","","","","","","","<p>The experiment will resume in 15 seconds. ",""
"","html-keyboard-response","290","510649","0.0-2.0-4.89-1.89-16.89","bsp","[""R""]","","","","","","null","","","null","","","","","","","","","","<p>The experiment will resume in 14 seconds. ",""
"","html-keyboard-response","291","511651","0.0-2.0-4.89-1.89-17.89","bsp","[""R""]","","","","","","null","","","null","","","","","","","","","","<p>The experiment will resume in 13 seconds. ",""
"","html-keyboard-response","292","512652","0.0-2.0-4.89-1.89-18.89","bsp","[""R""]","","","","","","null","","","null","","","","","","","","","","<p>The experiment will resume in 12 seconds. ",""
"","html-keyboard-response","293","513655","0.0-2.0-4.89-1.89-19.89","bsp","[""R""]","","","","","","null","","","null","","","","","","","","","","<p>The experiment will resume in 11 seconds. ",""
"","html-keyboard-response","294","514657","0.0-2.0-4.89-1.89-20.89","bsp","[""R""]","","","","","","null","","","null","","","","","","","","","","<p>The experiment will resume in 10 seconds. ",""
"","html-keyboard-response","295","515659","0.0-2.0-4.89-1.89-21.89","bsp","[""R""]","","","","","","null","","","null","","","","","","","","","","<p>The experiment will resume in 9 seconds. ",""
"","html-keyboard-response","296","516661","0.0-2.0-4.89-1.89-22.89","bsp","[""R""]","","","","","","null","","","null","","","","","","","","","","<p>The experiment will resume in 8 seconds. ",""
"","html-keyboard-response","297","517662","0.0-2.0-4.89-1.89-23.89","bsp","[""R""]","","","","","","null","","","null","","","","","","","","","","<p>The experiment will resume in 7 seconds. ",""
"","html-keyboard-response","298","518664","0.0-2.0-4.89-1.89-24.89","bsp","[""R""]","","","","","","null","","","null","","","","","","","","","","<p>The experiment will resume in 6 seconds. ",""
"","html-keyboard-response","299","519667","0.0-2.0-4.89-1.89-25.89","bsp","[""R""]","","","","","","null","","","null","","","","","","","","","","<p>The experiment will resume in 5 seconds. ",""
"","html-keyboard-response","300","520668","0.0-2.0-4.89-1.89-26.89","bsp","[""R""]","","","","","","null","","","null","","","","","","","","","","<p>The experiment will resume in 4 seconds. ",""
"","html-keyboard-response","301","521670","0.0-2.0-4.89-1.89-27.89","bsp","[""R""]","","","","","","null","","","null","","","","","","","","","","<p>The experiment will resume in 3 seconds. ",""
"","html-keyboard-response","302","522671","0.0-2.0-4.89-1.89-28.89","bsp","[""R""]","","","","","","null","","","null","","","","","","","","","","<p>The experiment will resume in 2 seconds. ",""
"","html-keyboard-response","303","523672","0.0-2.0-4.89-1.89-29.89","bsp","[""R""]","","","","","","null","","","null","","","","","","","","","","<p>The experiment will resume in 1 seconds. ",""
"","psychophysics","304","527563","0.0-2.0-0.90","bsp","[""R""]","","","","","","3187","key","m","m","16.687557939914416","740.5","416.5","1","0","0","0","1","false","",""
"","psychophysics","305","528572","0.0-2.0-1.90","bsp","[""R""]","","","","","","null","key","null","null","16.68620000000034","740.5","416.5","1","0","0","0","1","","",""
"","psychophysics","306","529581","0.0-2.0-3.90-0.90","bsp","[""R""]","","","","","","null","key","null","null","16.68610169491494","740.5","416.5","1","0","0","0","1","","",""
"","psychophysics","307","531258","0.0-2.0-0.91","bsp","[""R""]","","","","","","971","key","m","m","16.686799999999348","740.5","416.5","2","1","1","1","1","true","",""
"","psychophysics","308","532266","0.0-2.0-1.91","bsp","[""R""]","","","","","","null","key","null","null","16.68613559321966","740.5","416.5","2","1","1","1","1","","",""
"","psychophysics","309","533275","0.0-2.0-2.91-0.91","bsp","[""R""]","","","","","","null","key","null","null","16.687166666666357","740.5","416.5","2","1","1","1","1","","",""
"","psychophysics","310","535338","0.0-2.0-0.92","bsp","[""R""]","","","","","","1359","key","m","m","16.686016393442767","740.5","416.5","2","0","1","0","1","true","",""
"","psychophysics","311","536346","0.0-2.0-1.92","bsp","[""R""]","","","","","","null","key","null","null","16.68740000000107","740.5","416.5","2","0","1","0","1","","",""
"","psychophysics","312","537355","0.0-2.0-2.92-0.92","bsp","[""R""]","","","","","","null","key","null","null","16.686203389829103","740.5","416.5","2","0","1","0","1","","",""
"","psychophysics","313","539835","0.0-2.0-0.93","bsp","[""R""]","","","","","","1776","key","m","m","16.686283783784223","740.5","416.5","2","1","1","0","1","true","",""
"","psychophysics","314","540842","0.0-2.0-1.93","bsp","[""R""]","","","","","","null","key","null","null","16.6869322033895","740.5","416.5","2","1","1","0","1","","",""
"","psychophysics","315","541851","0.0-2.0-2.93-0.93","bsp","[""R""]","","","","","","null","key","null","null","16.687083333332946","740.5","416.5","2","1","1","0","1","","",""
"","psychophysics","316","543930","0.0-2.0-0.94","bsp","[""R""]","","","","","","1375","key","z","z","16.685739837398533","740.5","416.5","1","1","1","1","1","true","",""
"","psychophysics","317","544938","0.0-2.0-1.94","bsp","[""R""]","","","","","","null","key","null","null","16.68740000000107","740.5","416.5","1","1","1","1","1","","",""
"","psychophysics","318","545947","0.0-2.0-2.94-0.94","bsp","[""R""]","","","","","","null","key","null","null","16.684779661016982","740.5","416.5","1","1","1","1","1","","",""
"","psychophysics","319","548202","0.0-2.0-0.95","bsp","[""R""]","","","","","","1552","key","z","z","16.686291044776038","740.5","416.5","1","0","0","1","1","true","",""
"","psychophysics","320","549210","0.0-2.0-1.95","bsp","[""R""]","","","","","","null","key","null","null","16.687049999999967","740.5","416.5","1","0","0","1","1","","",""
"","psychophysics","321","550218","0.0-2.0-2.95-0.95","bsp","[""R""]","","","","","","null","key","null","null","16.687389830508174","740.5","416.5","1","0","0","1","1","","",""
"","psychophysics","322","552781","0.0-2.0-0.96","bsp","[""R""]","","","","","","1859","key","m","m","16.686254901960613","740.5","416.5","2","1","0","1","1","true","",""
"","psychophysics","323","553788","0.0-2.0-1.96","bsp","[""R""]","","","","","","null","key","null","null","16.685593220338195","740.5","416.5","2","1","0","1","1","","",""
"","psychophysics","324","554799","0.0-2.0-2.96-0.96","bsp","[""R""]","","","","","","null","key","null","null","16.686149999999905","740.5","416.5","2","1","0","1","1","","",""
"","psychophysics","325","558170","0.0-2.0-0.97","bsp","[""R""]","","","","","","2668","key","m","m","16.685761194029794","740.5","416.5","2","0","0","1","1","true","",""
"","psychophysics","326","559177","0.0-2.0-1.97","bsp","[""R""]","","","","","","null","key","null","null","16.68544067796596","740.5","416.5","2","0","0","1","1","","",""
"","psychophysics","327","560188","0.0-2.0-2.97-0.97","bsp","[""R""]","","","","","","null","key","null","null","16.686799999999735","740.5","416.5","2","0","0","1","1","","",""
"","psychophysics","328","563242","0.0-2.0-0.98","bsp","[""R""]","","","","","","2350","key","z","z","16.685824175824536","740.5","416.5","1","1","0","1","0","true","",""
"","psychophysics","329","564250","0.0-2.0-1.98","bsp","[""R""]","","","","","","null","key","null","null","16.68701694915229","740.5","416.5","1","1","0","1","0","","",""
"","psychophysics","330","565260","0.0-2.0-2.98-0.98","bsp","[""R""]","","","","","","null","key","null","null","16.686900000000605","740.5","416.5","1","1","0","1","0","","",""
"","psychophysics","331","567834","0.0-2.0-0.99","bsp","[""R""]","","","","","","1869","key","m","m","16.685862745097502","740.5","416.5","1","0","0","0","1","false","",""
"","psychophysics","332","568841","0.0-2.0-1.99","bsp","[""R""]","","","","","","null","key","null","null","16.68593220339133","740.5","416.5","1","0","0","0","1","","",""
"","psychophysics","333","569850","0.0-2.0-3.99-0.99","bsp","[""R""]","","","","","","null","key","null","null","16.68670000000081","740.5","416.5","1","0","0","0","1","","",""
"","psychophysics","334","572042","0.0-2.0-0.100","bsp","[""R""]","","","","","","1488","key","m","m","16.686476923076686","740.5","416.5","2","1","0","1","1","true","",""
"","psychophysics","335","573049","0.0-2.0-1.100","bsp","[""R""]","","","","","","null","key","null","null","16.687440677966244","740.5","416.5","2","1","0","1","1","","",""
"","psychophysics","336","574058","0.0-2.0-2.100-0.100","bsp","[""R""]","","","","","","null","key","null","null","16.686183333334824","740.5","416.5","2","1","0","1","1","","",""
"","psychophysics","337","576394","0.0-2.0-0.101","bsp","[""R""]","","","","","","1632","key","z","z","16.68641726618713","740.5","416.5","1","0","1","1","1","true","",""
"","psychophysics","338","577401","0.0-2.0-1.101","bsp","[""R""]","","","","","","null","key","null","null","16.685949152542705","740.5","416.5","1","0","1","1","1","","",""
"","psychophysics","339","578411","0.0-2.0-2.101-0.101","bsp","[""R""]","","","","","","null","key","null","null","16.687016666665052","740.5","416.5","1","0","1","1","1","","",""
"","psychophysics","340","581434","0.0-2.0-0.102","bsp","[""R""]","","","","","","2319","key","z","z","16.68585000000053","740.5","416.5","1","1","0","1","1","true","",""
"","psychophysics","341","582441","0.0-2.0-1.102","bsp","[""R""]","","","","","","null","key","null","null","16.68610169491494","740.5","416.5","1","1","0","1","1","","",""
"","psychophysics","342","583451","0.0-2.0-2.102-0.102","bsp","[""R""]","","","","","","null","key","null","null","16.686483333333552","740.5","416.5","1","1","0","1","1","","",""
"","psychophysics","343","585901","0.0-2.0-0.103","bsp","[""R""]","","","","","","1746","key","m","m","16.68557534246524","740.5","416.5","2","1","1","1","1","true","",""
"","psychophysics","344","586908","0.0-2.0-1.103","bsp","[""R""]","","","","","","null","key","null","null","16.68627118644052","740.5","416.5","2","1","1","1","1","","",""
"","psychophysics","345","587920","0.0-2.0-2.103-0.103","bsp","[""R""]","","","","","","null","key","null","null","16.68685000000017","740.5","416.5","2","1","1","1","1","","",""
"","psychophysics","346","590074","0.0-2.0-0.104","bsp","[""R""]","","","","","","1449","key","m","m","16.685804687500422","740.5","416.5","1","1","1","1","1","false","",""
"","psychophysics","347","591081","0.0-2.0-1.104","bsp","[""R""]","","","","","","null","key","null","null","16.686254237287173","740.5","416.5","1","1","1","1","1","","",""
"","psychophysics","348","592092","0.0-2.0-3.104-0.104","bsp","[""R""]","","","","","","null","key","null","null","16.687183333331873","740.5","416.5","1","1","1","1","1","","",""
"","psychophysics","349","594698","0.0-2.0-0.105","bsp","[""R""]","","","","","","1902","key","m","m","16.686025806451816","740.5","416.5","2","0","1","1","1","true","",""
"","psychophysics","350","595705","0.0-2.0-1.105","bsp","[""R""]","","","","","","null","key","null","null","16.685050847456726","740.5","416.5","2","0","1","1","1","","",""
"","psychophysics","351","596715","0.0-2.0-2.105-0.105","bsp","[""R""]","","","","","","null","key","null","null","16.687116666665922","740.5","416.5","2","0","1","1","1","","",""
"","psychophysics","352","599706","0.0-2.0-0.106","bsp","[""R""]","","","","","","2287","key","m","m","16.685837078651836","740.5","416.5","1","0","0","1","0","false","",""
"","psychophysics","353","600714","0.0-2.0-1.106","bsp","[""R""]","","","","","","null","key","null","null","16.687508474575687","740.5","416.5","1","0","0","1","0","","",""
"","psychophysics","354","601722","0.0-2.0-3.106-0.106","bsp","[""R""]","","","","","","null","key","null","null","16.686883333333146","740.5","416.5","1","0","0","1","0","","",""
"","psychophysics","355","603578","0.0-2.0-0.107","bsp","[""R""]","","","","","","1152","key","m","m","16.685981818182732","740.5","416.5","2","0","0","1","1","true","",""
"","psychophysics","356","604585","0.0-2.0-1.107","bsp","[""R""]","","","","","","null","key","null","null","16.687423728812895","740.5","416.5","2","0","0","1","1","","",""
"","psychophysics","357","605595","0.0-2.0-2.107-0.107","bsp","[""R""]","","","","","","null","key","null","null","16.686066666666495","740.5","416.5","2","0","0","1","1","","",""
"","psychophysics","358","608428","0.0-2.0-0.108","bsp","[""R""]","","","","","","2130","key","z","z","16.686011834319448","740.5","416.5","1","1","0","1","1","true","",""
"","psychophysics","359","609436","0.0-2.0-1.108","bsp","[""R""]","","","","","","null","key","null","null","16.68450847457526","740.5","416.5","1","1","0","1","1","","",""
"","psychophysics","360","610447","0.0-2.0-2.108-0.108","bsp","[""R""]","","","","","","null","key","null","null","16.687283333332743","740.5","416.5","1","1","0","1","1","","",""
"","psychophysics","361","612922","0.0-2.0-0.109","bsp","[""R""]","","","","","","1771","key","m","m","16.68587755102056","740.5","416.5","2","1","0","1","0","true","",""
"","psychophysics","362","613930","0.0-2.0-1.109","bsp","[""R""]","","","","","","null","key","null","null","16.687050847457012","740.5","416.5","2","1","0","1","0","","",""
"","psychophysics","363","614939","0.0-2.0-2.109-0.109","bsp","[""R""]","","","","","","null","key","null","null","16.68640000000014","740.5","416.5","2","1","0","1","0","","",""
"","psychophysics","364","617082","0.0-2.0-0.110","bsp","[""R""]","","","","","","1439","key","m","m","16.686354330708784","740.5","416.5","2","0","1","1","1","true","",""
"","psychophysics","365","618090","0.0-2.0-1.110","bsp","[""R""]","","","","","","null","key","null","null","16.68685000000017","740.5","416.5","2","0","1","1","1","","",""
"","psychophysics","366","619098","0.0-2.0-2.110-0.110","bsp","[""R""]","","","","","","null","key","null","null","16.685576271186818","740.5","416.5","2","0","1","1","1","","",""
"","psychophysics","367","621276","0.0-2.0-0.111","bsp","[""R""]","","","","","","1474","key","m","m","16.68659230769218","740.5","416.5","2","0","1","1","1","true","",""
"","psychophysics","368","622284","0.0-2.0-1.111","bsp","[""R""]","","","","","","null","key","null","null","16.685847457626565","740.5","416.5","2","0","1","1","1","","",""
"","psychophysics","369","623294","0.0-2.0-2.111-0.111","bsp","[""R""]","","","","","","null","key","null","null","16.687116666667862","740.5","416.5","2","0","1","1","1","","",""
"","psychophysics","370","625948","0.0-2.0-0.112","bsp","[""R""]","","","","","","1949","key","m","m","16.686443037974584","740.5","416.5","2","0","0","0","1","true","",""
"","psychophysics","371","626955","0.0-2.0-1.112","bsp","[""R""]","","","","","","null","key","null","null","16.6846101694914","740.5","416.5","2","0","0","0","1","","",""
"","psychophysics","372","627966","0.0-2.0-2.112-0.112","bsp","[""R""]","","","","","","null","key","null","null","16.68703333333251","740.5","416.5","2","0","0","0","1","","",""
"","psychophysics","373","629994","0.0-2.0-0.113","bsp","[""R""]","","","","","","1325","key","m","m","16.68593333333265","740.5","416.5","2","0","0","1","1","true","",""
"","psychophysics","374","631003","0.0-2.0-1.113","bsp","[""R""]","","","","","","null","key","null","null","16.687049999999967","740.5","416.5","2","0","0","1","1","","",""
"","psychophysics","375","632011","0.0-2.0-2.113-0.113","bsp","[""R""]","","","","","","null","key","null","null","16.687338983050104","740.5","416.5","2","0","0","1","1","","",""
"","psychophysics","376","633898","0.0-2.0-0.114","bsp","[""R""]","","","","","","1182","key","m","m","16.686267857142543","740.5","416.5","2","1","0","1","1","true","",""
"","psychophysics","377","634907","0.0-2.0-1.114","bsp","[""R""]","","","","","","null","key","null","null","16.687249999999768","740.5","416.5","2","1","0","1","1","","",""
"","psychophysics","378","635916","0.0-2.0-2.114-0.114","bsp","[""R""]","","","","","","null","key","null","null","16.68425423728886","740.5","416.5","2","1","0","1","1","","",""
"","psychophysics","379","638506","0.0-2.0-0.115","bsp","[""R""]","","","","","","1886","key","m","m","16.68647402597443","740.5","416.5","1","0","0","1","1","false","",""
"","psychophysics","380","639513","0.0-2.0-1.115","bsp","[""R""]","","","","","","null","key","null","null","16.689166666666278","740.5","416.5","1","0","0","1","1","","",""
"","psychophysics","381","640522","0.0-2.0-3.115-0.115","bsp","[""R""]","","","","","","null","key","null","null","16.687305084745383","740.5","416.5","1","0","0","1","1","","",""
"","psychophysics","382","642906","0.0-2.0-0.116","bsp","[""R""]","","","","","","1680","key","m","m","16.686415492957885","740.5","416.5","2","1","0","1","0","true","",""
"","psychophysics","383","643913","0.0-2.0-1.116","bsp","[""R""]","","","","","","null","key","null","null","16.687338983050104","740.5","416.5","2","1","0","1","0","","",""
"","psychophysics","384","644922","0.0-2.0-2.116-0.116","bsp","[""R""]","","","","","","null","key","null","null","16.686883333335086","740.5","416.5","2","1","0","1","0","","",""
"","psychophysics","385","647389","0.0-2.0-0.117","bsp","[""R""]","","","","","","1763","key","m","m","16.685462585033463","740.5","416.5","2","0","1","1","1","true","",""
"","psychophysics","386","648397","0.0-2.0-1.117","bsp","[""R""]","","","","","","null","key","null","null","16.685728813559052","740.5","416.5","2","0","1","1","1","","",""
"","psychophysics","387","649408","0.0-2.0-2.117-0.117","bsp","[""R""]","","","","","","null","key","null","null","16.68723333333231","740.5","416.5","2","0","1","1","1","","",""
"","psychophysics","388","651562","0.0-2.0-0.118","bsp","[""R""]","","","","","","1451","key","m","m","16.686046875000102","740.5","416.5","1","0","1","1","0","false","",""
"","psychophysics","389","652569","0.0-2.0-1.118","bsp","[""R""]","","","","","","null","key","null","null","16.685813559321844","740.5","416.5","1","0","1","1","0","","",""
"","psychophysics","390","653579","0.0-2.0-3.118-0.118","bsp","[""R""]","","","","","","null","key","null","null","16.686900000000605","740.5","416.5","1","0","1","1","0","","",""
"","psychophysics","391","655290","0.0-2.0-0.119","bsp","[""R""]","","","","","","1007","key","z","z","16.68577227722807","740.5","416.5","1","1","1","1","0","true","",""
"","psychophysics","392","656299","0.0-2.0-1.119","bsp","[""R""]","","","","","","null","key","null","null","16.687049999999967","740.5","416.5","1","1","1","1","0","","",""
"","psychophysics","393","657307","0.0-2.0-2.119-0.119","bsp","[""R""]","","","","","","null","key","null","null","16.687203389831218","740.5","416.5","1","1","1","1","0","","",""
"","psychophysics","394","659770","0.0-2.0-0.120","bsp","[""R""]","","","","","","1760","key","z","z","16.686197278911855","740.5","416.5","2","1","1","0","1","false","",""
"","psychophysics","395","660777","0.0-2.0-1.120","bsp","[""R""]","","","","","","null","key","null","null","16.68577966101515","740.5","416.5","2","1","1","0","1","","",""
"","psychophysics","396","661788","0.0-2.0-3.120-0.120","bsp","[""R""]","","","","","","null","key","null","null","16.686149999999905","740.5","416.5","2","1","1","0","1","","",""
"","psychophysics","397","663866","0.0-2.0-0.121","bsp","[""R""]","","","","","","1374","key","m","m","16.68589430894396","740.5","416.5","1","1","0","0","1","false","",""
"","psychophysics","398","664875","0.0-2.0-1.121","bsp","[""R""]","","","","","","null","key","null","null","16.687300000000203","740.5","416.5","1","1","0","0","1","","",""
"","psychophysics","399","665884","0.0-2.0-3.121-0.121","bsp","[""R""]","","","","","","null","key","null","null","16.687389830508174","740.5","416.5","1","1","0","0","1","","",""
"","psychophysics","400","667385","0.0-2.0-0.122","bsp","[""R""]","","","","","","799","key","z","z","16.686382022471786","740.5","416.5","1","0","0","1","1","true","",""
"","psychophysics","401","668396","0.0-2.0-1.122","bsp","[""R""]","","","","","","null","key","null","null","16.68713333333338","740.5","416.5","1","0","0","1","1","","",""
"","psychophysics","402","669405","0.0-2.0-2.122-0.122","bsp","[""R""]","","","","","","null","key","null","null","16.684813559321704","740.5","416.5","1","0","0","1","1","","",""
"","psychophysics","403","672201","0.0-2.0-0.123","bsp","[""R""]","","","","","","2093","key","z","z","16.686419161676547","740.5","416.5","1","1","0","1","0","true","",""
"","psychophysics","404","673209","0.0-2.0-1.123","bsp","[""R""]","","","","","","null","key","null","null","16.686898305084778","740.5","416.5","1","1","0","1","0","","",""
"","psychophysics","405","674220","0.0-2.0-2.123-0.123","bsp","[""R""]","","","","","","null","key","null","null","16.687150000000837","740.5","416.5","1","1","0","1","0","","",""
"","psychophysics","406","676442","0.0-2.0-0.124","bsp","[""R""]","","","","","","1518","key","z","z","16.685840909090597","740.5","416.5","1","1","0","1","0","true","",""
"","psychophysics","407","677448","0.0-2.0-1.124","bsp","[""R""]","","","","","","null","key","null","null","16.685847457626565","740.5","416.5","1","1","0","1","0","","",""
"","psychophysics","408","678458","0.0-2.0-2.124-0.124","bsp","[""R""]","","","","","","null","key","null","null","16.687383333333614","740.5","416.5","1","1","0","1","0","","",""
"","psychophysics","409","680906","0.0-2.0-0.125","bsp","[""R""]","","","","","","1744","key","z","z","16.685593103448827","740.5","416.5","2","1","0","0","1","false","",""
"","psychophysics","410","681913","0.0-2.0-1.125","bsp","[""R""]","","","","","","null","key","null","null","16.687633333333846","740.5","416.5","2","1","0","0","1","","",""
"","psychophysics","411","682921","0.0-2.0-3.125-0.125","bsp","[""R""]","","","","","","null","key","null","null","16.687033898305636","740.5","416.5","2","1","0","0","1","","",""
"","psychophysics","412","685133","0.0-2.0-0.126","bsp","[""R""]","","","","","","1507","key","z","z","16.686340909090536","740.5","416.5","2","1","0","0","0","false","",""
"","psychophysics","413","686140","0.0-2.0-1.126","bsp","[""R""]","","","","","","null","key","null","null","16.68698305084757","740.5","416.5","2","1","0","0","0","","",""
"","psychophysics","414","687151","0.0-2.0-3.126-0.126","bsp","[""R""]","","","","","","null","key","null","null","16.687383333333614","740.5","416.5","2","1","0","0","0","","",""
"","psychophysics","415","688794","0.0-2.0-0.127","bsp","[""R""]","","","","","","938","key","m","m","16.685876288660083","740.5","416.5","1","1","0","1","0","false","",""
"","psychophysics","416","689804","0.0-2.0-1.127","bsp","[""R""]","","","","","","null","key","null","null","16.68748333333448","740.5","416.5","1","1","0","1","0","","",""
"","psychophysics","417","690811","0.0-2.0-3.127-0.127","bsp","[""R""]","","","","","","null","key","null","null","16.685949152540733","740.5","416.5","1","1","0","1","0","","",""
"","psychophysics","418","692634","0.0-2.0-0.128","bsp","[""R""]","","","","","","1118","key","z","z","16.686537037036572","740.5","416.5","1","1","1","1","1","true","",""
"","psychophysics","419","693641","0.0-2.0-1.128","bsp","[""R""]","","","","","","null","key","null","null","16.687100000000402","740.5","416.5","1","1","1","1","1","","",""
"","psychophysics","420","694650","0.0-2.0-2.128-0.128","bsp","[""R""]","","","","","","null","key","null","null","16.686728813559196","740.5","416.5","1","1","1","1","1","","",""
"","psychophysics","421","697130","0.0-2.0-0.129","bsp","[""R""]","","","","","","1776","key","m","m","16.6862567567567","740.5","416.5","1","1","1","0","1","false","",""
"","psychophysics","422","698136","0.0-2.0-1.129","bsp","[""R""]","","","","","","null","key","null","null","16.684728813560884","740.5","416.5","1","1","1","0","1","","",""
"","psychophysics","423","699148","0.0-2.0-3.129-0.129","bsp","[""R""]","","","","","","null","key","null","null","16.68611666666499","740.5","416.5","1","1","1","0","1","","",""
"","psychophysics","424","701018","0.0-2.0-0.130","bsp","[""R""]","","","","","","1166","key","m","m","16.685963963963896","740.5","416.5","2","0","0","1","1","true","",""
"","psychophysics","425","702024","0.0-2.0-1.130","bsp","[""R""]","","","","","","null","key","null","null","16.68447457627054","740.5","416.5","2","0","0","1","1","","",""
"","psychophysics","426","703036","0.0-2.0-2.130-0.130","bsp","[""R""]","","","","","","null","key","null","null","16.68703333333251","740.5","416.5","2","0","0","1","1","","",""
"","psychophysics","427","705706","0.0-2.0-0.131","bsp","[""R""]","","","","","","1966","key","z","z","16.685911949685885","740.5","416.5","1","1","1","1","1","true","",""
"","psychophysics","428","706713","0.0-2.0-1.131","bsp","[""R""]","","","","","","null","key","null","null","16.685966101696053","740.5","416.5","1","1","1","1","1","","",""
"","psychophysics","429","707724","0.0-2.0-2.131-0.131","bsp","[""R""]","","","","","","null","key","null","null","16.68693333333358","740.5","416.5","1","1","1","1","1","","",""
"","psychophysics","430","709337","0.0-2.0-0.132","bsp","[""R""]","","","","","","910","key","m","m","16.68649473684276","740.5","416.5","1","0","0","0","0","false","",""
"","psychophysics","431","710345","0.0-2.0-1.132","bsp","[""R""]","","","","","","null","key","null","null","16.687183333333813","740.5","416.5","1","0","0","0","0","","",""
"","psychophysics","432","711353","0.0-2.0-3.132-0.132","bsp","[""R""]","","","","","","null","key","null","null","16.686728813559196","740.5","416.5","1","0","0","0","0","","",""
"","psychophysics","433","714457","0.0-2.0-0.133","bsp","[""R""]","","","","","","2401","key","m","m","16.68618378378388","740.5","416.5","1","0","0","1","0","false","",""
"","psychophysics","434","715466","0.0-2.0-1.133","bsp","[""R""]","","","","","","null","key","null","null","16.68796666666749","740.5","416.5","1","0","0","1","0","","",""
"","psychophysics","435","716475","0.0-2.0-3.133-0.133","bsp","[""R""]","","","","","","null","key","null","null","16.684118644068","740.5","416.5","1","0","0","1","0","","",""
"","psychophysics","436","718921","0.0-2.0-0.134","bsp","[""R""]","","","","","","1742","key","z","z","16.68636301369805","740.5","416.5","1","1","0","1","0","true","",""
"","psychophysics","437","719929","0.0-2.0-1.134","bsp","[""R""]","","","","","","null","key","null","null","16.685932203389356","740.5","416.5","1","1","0","1","0","","",""
"","psychophysics","438","720939","0.0-2.0-2.134-0.134","bsp","[""R""]","","","","","","null","key","null","null","16.686899999998666","740.5","416.5","1","1","0","1","0","","",""
"","psychophysics","439","722665","0.0-2.0-0.135","bsp","[""R""]","","","","","","1023","key","m","m","16.685225490196473","740.5","416.5","2","0","0","1","1","true","",""
"","psychophysics","440","723676","0.0-2.0-1.135","bsp","[""R""]","","","","","","null","key","null","null","16.687116666665922","740.5","416.5","2","0","0","1","1","","",""
"","psychophysics","441","724683","0.0-2.0-2.135-0.135","bsp","[""R""]","","","","","","null","key","null","null","16.685728813559052","740.5","416.5","2","0","0","1","1","","",""
"","psychophysics","442","726730","0.0-2.0-0.136","bsp","[""R""]","","","","","","1343","key","m","m","16.68609016393426","740.5","416.5","2","0","1","1","1","true","",""
"","psychophysics","443","727736","0.0-2.0-1.136","bsp","[""R""]","","","","","","null","key","null","null","16.685966101694078","740.5","416.5","2","0","1","1","1","","",""
"","psychophysics","444","728748","0.0-2.0-2.136-0.136","bsp","[""R""]","","","","","","null","key","null","null","16.68613333333439","740.5","416.5","2","0","1","1","1","","",""
"","psychophysics","445","731369","0.0-2.0-0.137","bsp","[""R""]","","","","","","1918","key","m","m","16.685358974359517","740.5","416.5","2","0","1","1","1","true","",""
"","psychophysics","446","732376","0.0-2.0-1.137","bsp","[""R""]","","","","","","null","key","null","null","16.68544067796596","740.5","416.5","2","0","1","1","1","","",""
"","psychophysics","447","733387","0.0-2.0-2.137-0.137","bsp","[""R""]","","","","","","null","key","null","null","16.68743333333405","740.5","416.5","2","0","1","1","1","","",""
"","psychophysics","448","735481","0.0-2.0-0.138","bsp","[""R""]","","","","","","1391","key","m","m","16.68589516129014","740.5","416.5","1","1","1","0","0","false","",""
"","psychophysics","449","736490","0.0-2.0-1.138","bsp","[""R""]","","","","","","null","key","null","null","16.68595000000011","740.5","416.5","1","1","1","0","0","","",""
"","psychophysics","450","737498","0.0-2.0-3.138-0.138","bsp","[""R""]","","","","","","null","key","null","null","16.68620338983108","740.5","416.5","1","1","1","0","0","","",""
"","psychophysics","451","739049","0.0-2.0-0.139","bsp","[""R""]","","","","","","848","key","m","m","16.68686956521655","740.5","416.5","1","1","1","1","1","false","",""
"","psychophysics","452","740057","0.0-2.0-1.139","bsp","[""R""]","","","","","","null","key","null","null","16.687644067796548","740.5","416.5","1","1","1","1","1","","",""
"","psychophysics","453","741066","0.0-2.0-3.139-0.139","bsp","[""R""]","","","","","","null","key","null","null","16.686483333333552","740.5","416.5","1","1","1","1","1","","",""
"","psychophysics","454","744169","0.0-2.0-0.140","bsp","[""R""]","","","","","","2400","key","z","z","16.686302702702783","740.5","416.5","1","0","1","0","1","true","",""
"","psychophysics","455","745177","0.0-2.0-1.140","bsp","[""R""]","","","","","","null","key","null","null","16.685983050847426","740.5","416.5","1","0","1","0","1","","",""
"","psychophysics","456","746186","0.0-2.0-2.140-0.140","bsp","[""R""]","","","","","","null","key","null","null","16.68703333333251","740.5","416.5","1","0","1","0","1","","",""
"","psychophysics","457","748171","0.0-2.0-0.141","bsp","[""R""]","","","","","","1280","key","m","m","16.685830508475192","740.5","416.5","2","0","0","0","1","true","",""
"","psychophysics","458","749177","0.0-2.0-1.141","bsp","[""R""]","","","","","","null","key","null","null","16.685881355931286","740.5","416.5","2","0","0","0","1","","",""
"","psychophysics","459","750189","0.0-2.0-2.141-0.141","bsp","[""R""]","","","","","","null","key","null","null","16.687049999999967","740.5","416.5","2","0","0","0","1","","",""
"","psychophysics","460","752076","0.0-2.0-0.142","bsp","[""R""]","","","","","","1184","key","m","m","16.68591964285692","740.5","416.5","1","0","1","1","1","false","",""
"","psychophysics","461","753082","0.0-2.0-1.142","bsp","[""R""]","","","","","","null","key","null","null","16.685542372880125","740.5","416.5","1","0","1","1","1","","",""
"","psychophysics","462","754094","0.0-2.0-3.142-0.142","bsp","[""R""]","","","","","","null","key","null","null","16.686899999998666","740.5","416.5","1","0","1","1","1","","",""
"","psychophysics","463","756585","0.0-2.0-0.143","bsp","[""R""]","","","","","","1788","key","z","z","16.685837837838335","740.5","416.5","2","0","1","1","0","false","",""
"","psychophysics","464","757592","0.0-2.0-1.143","bsp","[""R""]","","","","","","null","key","null","null","16.686203389829103","740.5","416.5","2","0","1","1","0","","",""
"","psychophysics","465","758601","0.0-2.0-3.143-0.143","bsp","[""R""]","","","","","","null","key","null","null","16.686899999998666","740.5","416.5","2","0","1","1","0","","",""
"","psychophysics","466","760745","0.0-2.0-0.144","bsp","[""R""]","","","","","","1440","key","z","z","16.685866141732138","740.5","416.5","1","0","0","1","1","true","",""
"","psychophysics","467","761753","0.0-2.0-1.144","bsp","[""R""]","","","","","","null","key","null","null","16.687466666667024","740.5","416.5","1","0","0","1","1","","",""
"","psychophysics","468","762761","0.0-2.0-2.144-0.144","bsp","[""R""]","","","","","","null","key","null","null","16.68620338983108","740.5","416.5","1","0","0","1","1","","",""
"","psychophysics","469","764633","0.0-2.0-0.145","bsp","[""R""]","","","","","","1169","key","m","m","16.686495495495503","740.5","416.5","2","0","1","1","1","true","",""
"","psychophysics","470","765640","0.0-2.0-1.145","bsp","[""R""]","","","","","","null","key","null","null","16.687249999999768","740.5","416.5","2","0","1","1","1","","",""
"","psychophysics","471","766650","0.0-2.0-2.145-0.145","bsp","[""R""]","","","","","","null","key","null","null","16.685881355931286","740.5","416.5","2","0","1","1","1","","",""
"","psychophysics","472","769081","0.0-2.0-0.146","bsp","[""R""]","","","","","","1728","key","m","m","16.6859034482751","740.5","416.5","2","1","1","1","0","true","",""
"","psychophysics","473","770088","0.0-2.0-1.146","bsp","[""R""]","","","","","","null","key","null","null","16.685881355931286","740.5","416.5","2","1","1","1","0","","",""
"","psychophysics","474","771098","0.0-2.0-2.146-0.146","bsp","[""R""]","","","","","","null","key","null","null","16.687283333332743","740.5","416.5","2","1","1","1","0","","",""
"","psychophysics","475","773434","0.0-2.0-0.147","bsp","[""R""]","","","","","","1632","key","m","m","16.685899280575306","740.5","416.5","2","0","1","1","1","true","",""
"","psychophysics","476","774440","0.0-2.0-1.147","bsp","[""R""]","","","","","","null","key","null","null","16.686067796610217","740.5","416.5","2","0","1","1","1","","",""
"","psychophysics","477","775452","0.0-2.0-2.147-0.147","bsp","[""R""]","","","","","","null","key","null","null","16.686833333334654","740.5","416.5","2","0","1","1","1","","",""
"","psychophysics","478","777593","0.0-2.0-0.148","bsp","[""R""]","","","","","","1439","key","m","m","16.685574803149372","740.5","416.5","1","0","1","0","0","false","",""
"","psychophysics","479","778600","0.0-2.0-1.148","bsp","[""R""]","","","","","","null","key","null","null","16.687050847457012","740.5","416.5","1","0","1","0","0","","",""
"","psychophysics","480","779610","0.0-2.0-3.148-0.148","bsp","[""R""]","","","","","","null","key","null","null","16.687283333332743","740.5","416.5","1","0","1","0","0","","",""
"","psychophysics","481","781610","0.0-2.0-0.149","bsp","[""R""]","","","","","","1297","key","z","z","16.685991596638914","740.5","416.5","1","1","1","1","1","true","",""
"","psychophysics","482","782617","0.0-2.0-1.149","bsp","[""R""]","","","","","","null","key","null","null","16.6857966101685","740.5","416.5","1","1","1","1","1","","",""
"","psychophysics","483","783628","0.0-2.0-2.149-0.149","bsp","[""R""]","","","","","","null","key","null","null","16.68556666666603","740.5","416.5","1","1","1","1","1","","",""
"","psychophysics","484","786089","0.0-2.0-0.150","bsp","[""R""]","","","","","","1758","key","m","m","16.685780821917483","740.5","416.5","2","0","1","1","0","true","",""
"","psychophysics","485","787099","0.0-2.0-1.150","bsp","[""R""]","","","","","","null","key","null","null","16.68686666666763","740.5","416.5","2","0","1","1","0","","",""
"","psychophysics","486","788107","0.0-2.0-2.150-0.150","bsp","[""R""]","","","","","","null","key","null","null","16.68538983050789","740.5","416.5","2","0","1","1","0","","",""
"","psychophysics","487","791289","0.0-2.0-0.151","bsp","[""R""]","","","","","","2479","key","z","z","16.686326315789483","740.5","416.5","1","1","1","0","1","true","",""
"","psychophysics","488","792296","0.0-2.0-1.151","bsp","[""R""]","","","","","","null","key","null","null","16.684847457628397","740.5","416.5","1","1","1","0","1","","",""
"","psychophysics","489","793306","0.0-2.0-2.151-0.151","bsp","[""R""]","","","","","","null","key","null","null","16.687299999998263","740.5","416.5","1","1","1","0","1","","",""
"","psychophysics","490","796137","0.0-2.0-0.152","bsp","[""R""]","","","","","","2128","key","m","m","16.685916666666994","740.5","416.5","2","1","0","1","0","true","",""
"","psychophysics","491","797147","0.0-2.0-1.152","bsp","[""R""]","","","","","","null","key","null","null","16.687249999999768","740.5","416.5","2","1","0","1","0","","",""
"","psychophysics","492","798156","0.0-2.0-2.152-0.152","bsp","[""R""]","","","","","","null","key","null","null","16.685932203389356","740.5","416.5","2","1","0","1","0","","",""
"","psychophysics","493","800489","0.0-2.0-0.153","bsp","[""R""]","","","","","","1626","key","m","m","16.68634532374102","740.5","416.5","1","1","0","0","0","false","",""
"","psychophysics","494","801499","0.0-2.0-1.153","bsp","[""R""]","","","","","","null","key","null","null","16.68676666666676","740.5","416.5","1","1","0","0","0","","",""
"","psychophysics","495","802507","0.0-2.0-3.153-0.153","bsp","[""R""]","","","","","","null","key","null","null","16.68569491525433","740.5","416.5","1","1","0","0","0","","",""
"","psychophysics","496","804857","0.0-2.0-0.154","bsp","[""R""]","","","","","","1647","key","m","m","16.686535714285647","740.5","416.5","1","0","0","0","1","false","",""
"","psychophysics","497","805864","0.0-2.0-1.154","bsp","[""R""]","","","","","","null","key","null","null","16.68627118644052","740.5","416.5","1","0","0","0","1","","",""
"","psychophysics","498","806874","0.0-2.0-3.154-0.154","bsp","[""R""]","","","","","","null","key","null","null","16.687100000000402","740.5","416.5","1","0","0","0","1","","",""
"","psychophysics","499","809033","0.0-2.0-0.155","bsp","[""R""]","","","","","","1457","key","m","m","16.686414062500262","740.5","416.5","1","1","0","0","0","false","",""
"","psychophysics","500","810042","0.0-2.0-1.155","bsp","[""R""]","","","","","","null","key","null","null","16.68713333333338","740.5","416.5","1","1","0","0","0","","",""
"","psychophysics","501","811050","0.0-2.0-3.155-0.155","bsp","[""R""]","","","","","","null","key","null","null","16.68649152542417","740.5","416.5","1","1","0","0","0","","",""
"","psychophysics","502","817117","0.0-2.0-0.156","bsp","[""R""]","","","","","","5364","key","m","m","16.685859504132402","740.5","416.5","1","0","0","1","0","false","",""
"","psychophysics","503","818124","0.0-2.0-1.156","bsp","[""R""]","","","","","","null","key","null","null","16.681694915255736","740.5","416.5","1","0","0","1","0","","",""
"","psychophysics","504","819136","0.0-2.0-3.156-0.156","bsp","[""R""]","","","","","","null","key","null","null","16.687149999998898","740.5","416.5","1","0","0","1","0","","",""
"","psychophysics","505","820989","0.0-2.0-0.157","bsp","[""R""]","","","","","","1150","key","m","m","16.68564545454521","740.5","416.5","1","0","0","1","0","false","",""
"","psychophysics","506","821995","0.0-2.0-1.157","bsp","[""R""]","","","","","","null","key","null","null","16.685525423728752","740.5","416.5","1","0","0","1","0","","",""
"","psychophysics","507","823007","0.0-2.0-3.157-0.157","bsp","[""R""]","","","","","","null","key","null","null","16.68731666666572","740.5","416.5","1","0","0","1","0","","",""
"","psychophysics","508","824697","0.0-2.0-0.158","bsp","[""R""]","","","","","","986","key","z","z","16.68570999999996","740.5","416.5","2","1","0","0","0","false","",""
"","psychophysics","509","825705","0.0-2.0-1.158","bsp","[""R""]","","","","","","null","key","null","null","16.686305084745243","740.5","416.5","2","1","0","0","0","","",""
"","psychophysics","510","826715","0.0-2.0-3.158-0.158","bsp","[""R""]","","","","","","null","key","null","null","16.68721666666485","740.5","416.5","2","1","0","0","0","","",""
"","psychophysics","511","828489","0.0-2.0-0.159","bsp","[""R""]","","","","","","1071","key","m","m","16.685942857142628","740.5","416.5","2","1","0","1","1","true","",""
"","psychophysics","512","829497","0.0-2.0-1.159","bsp","[""R""]","","","","","","null","key","null","null","16.685900000001613","740.5","416.5","2","1","0","1","1","","",""
"","psychophysics","513","830506","0.0-2.0-2.159-0.159","bsp","[""R""]","","","","","","null","key","null","null","16.685593220338195","740.5","416.5","2","1","0","1","1","","",""
"","psychophysics","514","832745","0.0-2.0-0.160","bsp","[""R""]","","","","","","1536","key","z","z","16.686526315790054","740.5","416.5","2","1","1","0","1","false","",""
"","psychophysics","515","833753","0.0-2.0-1.160","bsp","[""R""]","","","","","","null","key","null","null","16.686966666666557","740.5","416.5","2","1","1","0","1","","",""
"","psychophysics","516","834762","0.0-2.0-3.160-0.160","bsp","[""R""]","","","","","","null","key","null","null","16.684796610170327","740.5","416.5","2","1","1","0","1","","",""
"","psychophysics","517","837129","0.0-2.0-0.161","bsp","[""R""]","","","","","","1664","key","m","m","16.686489361702424","740.5","416.5","2","0","0","0","1","true","",""
"","psychophysics","518","838136","0.0-2.0-1.161","bsp","[""R""]","","","","","","null","key","null","null","16.68728813559401","740.5","416.5","2","0","0","0","1","","",""
"","psychophysics","519","839145","0.0-2.0-2.161-0.161","bsp","[""R""]","","","","","","null","key","null","null","16.687116666667862","740.5","416.5","2","0","0","0","1","","",""
"","psychophysics","520","841753","0.0-2.0-0.162","bsp","[""R""]","","","","","","1904","key","z","z","16.68600645161294","740.5","416.5","2","0","1","1","0","false","",""
"","psychophysics","521","842763","0.0-2.0-1.162","bsp","[""R""]","","","","","","null","key","null","null","16.68731666666766","740.5","416.5","2","0","1","1","0","","",""
"","psychophysics","522","843771","0.0-2.0-3.162-0.162","bsp","[""R""]","","","","","","null","key","null","null","16.686152542371033","740.5","416.5","2","0","1","1","0","","",""
"","psychophysics","523","847353","0.0-2.0-0.163","bsp","[""R""]","","","","","","2879","key","m","m","16.68619158878546","740.5","416.5","2","0","1","1","0","true","",""
"","psychophysics","524","848360","0.0-2.0-1.163","bsp","[""R""]","","","","","","null","key","null","null","16.68608474576159","740.5","416.5","2","0","1","1","0","","",""
"","psychophysics","525","849371","0.0-2.0-2.163-0.163","bsp","[""R""]","","","","","","null","key","null","null","16.686466666666092","740.5","416.5","2","0","1","1","0","","",""
"","psychophysics","526","852361","0.0-2.0-0.164","bsp","[""R""]","","","","","","2286","key","m","m","16.685853932583914","740.5","416.5","2","1","1","1","1","true","",""
"","psychophysics","527","853368","0.0-2.0-1.164","bsp","[""R""]","","","","","","null","key","null","null","16.685186440677587","740.5","416.5","2","1","1","1","1","","",""
"","psychophysics","528","854377","0.0-2.0-2.164-0.164","bsp","[""R""]","","","","","","null","key","null","null","16.687183333333813","740.5","416.5","2","1","1","1","1","","",""
"","psychophysics","529","856780","0.0-2.0-0.165","bsp","[""R""]","","","","","","1700","key","z","z","16.68579720279733","740.5","416.5","1","1","0","1","1","true","",""
"","psychophysics","530","857787","0.0-2.0-1.165","bsp","[""R""]","","","","","","null","key","null","null","16.6857457627124","740.5","416.5","1","1","0","1","1","","",""
"","psychophysics","531","858798","0.0-2.0-2.165-0.165","bsp","[""R""]","","","","","","null","key","null","null","16.68593333333265","740.5","416.5","1","1","0","1","1","","",""
"","psychophysics","532","861402","0.0-2.0-0.166","bsp","[""R""]","","","","","","1900","key","m","m","16.68582580645133","740.5","416.5","2","1","0","1","1","true","",""
"","psychophysics","533","862409","0.0-2.0-1.166","bsp","[""R""]","","","","","","null","key","null","null","16.684728813558912","740.5","416.5","2","1","0","1","1","","",""
"","psychophysics","534","863420","0.0-2.0-2.166-0.166","bsp","[""R""]","","","","","","null","key","null","null","16.686883333333146","740.5","416.5","2","1","0","1","1","","",""
"","psychophysics","535","867961","0.0-2.0-0.167","bsp","[""R""]","","","","","","3837","key","z","z","16.685590405904215","740.5","416.5","1","0","0","1","1","true","",""
"","psychophysics","536","868968","0.0-2.0-1.167","bsp","[""R""]","","","","","","null","key","null","null","16.685830508475192","740.5","416.5","1","0","0","1","1","","",""
"","psychophysics","537","869978","0.0-2.0-2.167-0.167","bsp","[""R""]","","","","","","null","key","null","null","16.68723333333231","740.5","416.5","1","0","0","1","1","","",""
"","psychophysics","538","872715","0.0-2.0-0.168","bsp","[""R""]","","","","","","2033","key","z","z","16.685803680982087","740.5","416.5","1","1","0","1","1","true","",""
"","psychophysics","539","873721","0.0-2.0-1.168","bsp","[""R""]","","","","","","null","key","null","null","16.6857457627124","740.5","416.5","1","1","0","1","1","","",""
"","psychophysics","540","874733","0.0-2.0-2.168-0.168","bsp","[""R""]","","","","","","null","key","null","null","16.687350000000638","740.5","416.5","1","1","0","1","1","","",""
"","psychophysics","541","876987","0.0-2.0-0.169","bsp","[""R""]","","","","","","1550","key","z","z","16.68605970149276","740.5","416.5","1","0","0","1","1","true","",""
"","psychophysics","542","877994","0.0-2.0-1.169","bsp","[""R""]","","","","","","null","key","null","null","16.685949152542705","740.5","416.5","1","0","0","1","1","","",""
"","psychophysics","543","879005","0.0-2.0-2.169-0.169","bsp","[""R""]","","","","","","null","key","null","null","16.687249999999768","740.5","416.5","1","0","0","1","1","","",""
"","psychophysics","544","881481","0.0-2.0-0.170","bsp","[""R""]","","","","","","1772","key","z","z","16.685741496598666","740.5","416.5","1","0","1","1","1","true","",""
"","psychophysics","545","882488","0.0-2.0-1.170","bsp","[""R""]","","","","","","null","key","null","null","16.686593220338334","740.5","416.5","1","0","1","1","1","","",""
"","psychophysics","546","883497","0.0-2.0-2.170-0.170","bsp","[""R""]","","","","","","null","key","null","null","16.686166666667365","740.5","416.5","1","0","1","1","1","","",""
"","psychophysics","547","886153","0.0-2.0-0.171","bsp","[""R""]","","","","","","1952","key","z","z","16.68599999999949","740.5","416.5","1","1","0","1","0","true","",""
"","psychophysics","548","887160","0.0-2.0-1.171","bsp","[""R""]","","","","","","null","key","null","null","16.687305084745383","740.5","416.5","1","1","0","1","0","","",""
"","psychophysics","549","888168","0.0-2.0-2.171-0.171","bsp","[""R""]","","","","","","null","key","null","null","16.685433333332185","740.5","416.5","1","1","0","1","0","","",""
"","psychophysics","550","890537","0.0-2.0-0.172","bsp","[""R""]","","","","","","1665","key","z","z","16.685985815602336","740.5","416.5","1","1","1","1","1","true","",""
"","psychophysics","551","891544","0.0-2.0-1.172","bsp","[""R""]","","","","","","null","key","null","null","16.68616949152438","740.5","416.5","1","1","1","1","1","","",""
"","psychophysics","552","892554","0.0-2.0-2.172-0.172","bsp","[""R""]","","","","","","null","key","null","null","16.68723333333231","740.5","416.5","1","1","1","1","1","","",""
"","psychophysics","553","895369","0.0-2.0-0.173","bsp","[""R""]","","","","","","2112","key","m","m","16.685874251496816","740.5","416.5","2","0","0","1","1","true","",""
"","psychophysics","554","896377","0.0-2.0-1.173","bsp","[""R""]","","","","","","null","key","null","null","16.68756666666595","740.5","416.5","2","0","0","1","1","","",""
"","psychophysics","555","897386","0.0-2.0-2.173-0.173","bsp","[""R""]","","","","","","null","key","null","null","16.686389830510006","740.5","416.5","2","0","0","1","1","","",""
"","psychophysics","556","899212","0.0-2.0-0.174","bsp","[""R""]","","","","","","1119","key","z","z","16.686623853211582","740.5","416.5","2","1","1","0","0","false","",""
"","psychophysics","557","900219","0.0-2.0-1.174","bsp","[""R""]","","","","","","null","key","null","null","16.687033898305636","740.5","416.5","2","1","1","0","0","","",""
"","psychophysics","558","901230","0.0-2.0-3.174-0.174","bsp","[""R""]","","","","","","null","key","null","null","16.687083333332946","740.5","416.5","2","1","1","0","0","","",""
"","psychophysics","559","903516","0.0-2.0-0.175","bsp","[""R""]","","","","","","1581","key","m","m","16.68572058823552","740.5","416.5","1","1","0","0","0","false","",""
"","psychophysics","560","904523","0.0-2.0-1.175","bsp","[""R""]","","","","","","null","key","null","null","16.68627118644052","740.5","416.5","1","1","0","0","0","","",""
"","psychophysics","561","905531","0.0-2.0-3.175-0.175","bsp","[""R""]","","","","","","null","key","null","null","16.68579661017047","740.5","416.5","1","1","0","0","0","","",""
"","psychophysics","562","908281","0.0-2.0-0.176","bsp","[""R""]","","","","","","2045","key","m","m","16.68582926829283","740.5","416.5","1","0","0","1","1","false","",""
"","psychophysics","563","909289","0.0-2.0-1.176","bsp","[""R""]","","","","","","null","key","null","null","16.687116666665922","740.5","416.5","1","0","0","1","1","","",""
"","psychophysics","564","910297","0.0-2.0-3.176-0.176","bsp","[""R""]","","","","","","null","key","null","null","16.68561016949154","740.5","416.5","1","0","0","1","1","","",""
"","psychophysics","565","913481","0.0-2.0-0.177","bsp","[""R""]","","","","","","2480","key","m","m","16.686168421052493","740.5","416.5","2","0","0","1","1","true","",""
"","psychophysics","566","914487","0.0-2.0-1.177","bsp","[""R""]","","","","","","null","key","null","null","16.6857966101685","740.5","416.5","2","0","0","1","1","","",""
"","psychophysics","567","915496","0.0-2.0-2.177-0.177","bsp","[""R""]","","","","","","null","key","null","null","16.687300000000203","740.5","416.5","2","0","0","1","1","","",""
