"success","trial_type","trial_index","time_elapsed","internal_node_id","subject","condition","timeout","failed_images","failed_audio","failed_video","view_history","rt","response_type","key_press","response","avg_frame_time","center_x","center_y","outcome","p1conf","p2conf","p1rslt","p2rslt","correct","stimulus","question_order"
"true","fullscreen","0","2131","0.0-0.0-0.0","f88","[""R""]","","","","","","","","","","","","","","","","","","","",""
"true","preload","1","2137","0.0-0.0-1.0","f88","[""R""]","false","[]","[]","[]","","","","","","","","","","","","","","","",""
"","instructions","2","195217","0.0-1.0","f88","[""R""]","","","","","[{""page_index"":0,""viewing_time"":148462},{""page_index"":1,""viewing_time"":19944},{""page_index"":2,""viewing_time"":24672}]","193079","","","","","","","","","","","","","",""
"","psychophysics","3","201289","0.0-2.0-0.0","f88","[""R""]","","","","","","5364","key","z","z","16.685983516483528","798","448.5","1","0","1","1","1","true","",""
"","psychophysics","4","202299","0.0-2.0-1.0","f88","[""R""]","","","","","","null","key","null","null","16.684466666666655","798","448.5","1","0","1","1","1","","",""
"","psychophysics","5","203302","0.0-2.0-2.0-0.0","f88","[""R""]","","","","","","null","key","null","null","16.68559322033869","798","448.5","1","0","1","1","1","","",""
"","psychophysics","6","209221","0.0-2.0-0.1","f88","[""R""]","","","","","","5216","key","m","m","16.685796610169483","798","448.5","2","1","1","1","1","true","",""
"","psychophysics","7","210224","0.0-2.0-1.1","f88","[""R""]","","","","","","null","key","null","null","16.685881355932274","798","448.5","2","1","1","1","1","","",""
"","psychophysics","8","211228","0.0-2.0-2.1-0.1","f88","[""R""]","","","","","","null","key","null","null","16.685728813559546","798","448.5","2","1","1","1","1","","",""
"","psychophysics","9","223724","0.0-2.0-0.2","f88","[""R""]","","","","","","11794","key","m","m","16.685852941176485","798","448.5","1","1","0","1","1","false","",""
"","psychophysics","10","224727","0.0-2.0-1.2","f88","[""R""]","","","","","","null","key","null","null","16.686084745763072","798","448.5","1","1","0","1","1","","",""
"","psychophysics","11","225730","0.0-2.0-3.2-0.2","f88","[""R""]","","","","","","null","key","null","null","16.68594915254221","798","448.5","1","1","0","1","1","","",""
"","psychophysics","12","228604","0.0-2.0-0.3","f88","[""R""]","","","","","","2171","key","z","z","16.685730994152102","798","448.5","1","0","1","1","1","true","",""
"","psychophysics","13","229608","0.0-2.0-1.3","f88","[""R""]","","","","","","null","key","null","null","16.68571186440669","798","448.5","1","0","1","1","1","","",""
"","psychophysics","14","230611","0.0-2.0-2.3-0.3","f88","[""R""]","","","","","","null","key","null","null","16.685883333333187","798","448.5","1","0","1","1","1","","",""
"","psychophysics","15","243429","0.0-2.0-0.4","f88","[""R""]","","","","","","12116","key","z","z","16.685989569752294","798","448.5","1","0","0","0","1","true","",""
"","psychophysics","16","244437","0.0-2.0-1.4","f88","[""R""]","","","","","","null","key","null","null","16.68576271186476","798","448.5","1","0","0","0","1","","",""
"","psychophysics","17","245453","0.0-2.0-2.4-0.4","f88","[""R""]","","","","","","null","key","null","null","16.686916666666608","798","448.5","1","0","0","0","1","","",""
"","psychophysics","18","247814","0.0-2.0-0.5","f88","[""R""]","","","","","","1656","key","z","z","16.68599999999985","798","448.5","1","0","1","1","1","true","",""
"","psychophysics","19","248822","0.0-2.0-1.5","f88","[""R""]","","","","","","null","key","null","null","16.686766666666276","798","448.5","1","0","1","1","1","","",""
"","psychophysics","20","249830","0.0-2.0-2.5-0.5","f88","[""R""]","","","","","","null","key","null","null","16.687898305084428","798","448.5","1","0","1","1","1","","",""
"","psychophysics","21","252073","0.0-2.0-0.6","f88","[""R""]","","","","","","1536","key","m","m","16.686067164179246","798","448.5","2","0","1","1","1","true","",""
"","psychophysics","22","253080","0.0-2.0-1.6","f88","[""R""]","","","","","","null","key","null","null","16.686050847457857","798","448.5","2","0","1","1","1","","",""
"","psychophysics","23","254091","0.0-2.0-2.6-0.6","f88","[""R""]","","","","","","null","key","null","null","16.687216666666792","798","448.5","2","0","1","1","1","","",""
"","psychophysics","24","256974","0.0-2.0-0.7","f88","[""R""]","","","","","","2180","key","z","z","16.685812865497105","798","448.5","1","0","1","1","1","true","",""
"","psychophysics","25","257982","0.0-2.0-1.7","f88","[""R""]","","","","","","null","key","null","null","16.683333333333334","798","448.5","1","0","1","1","1","","",""
"","psychophysics","26","258991","0.0-2.0-2.7-0.7","f88","[""R""]","","","","","","null","key","null","null","16.68676271186441","798","448.5","1","0","1","1","1","","",""
"","psychophysics","27","267374","0.0-2.0-0.8","f88","[""R""]","","","","","","7676","key","m","m","16.685946215139385","798","448.5","2","0","0","0","1","true","",""
"","psychophysics","28","268382","0.0-2.0-1.8","f88","[""R""]","","","","","","null","key","null","null","16.68537288135553","798","448.5","2","0","0","0","1","","",""
"","psychophysics","29","269392","0.0-2.0-2.8-0.8","f88","[""R""]","","","","","","null","key","null","null","16.68603333333352","798","448.5","2","0","0","0","1","","",""
"","psychophysics","30","271645","0.0-2.0-0.9","f88","[""R""]","","","","","","1549","key","z","z","16.685723880596925","798","448.5","1","1","1","1","1","true","",""
"","psychophysics","31","272653","0.0-2.0-1.9","f88","[""R""]","","","","","","null","key","null","null","16.68471186440655","798","448.5","1","1","1","1","1","","",""
"","psychophysics","32","273663","0.0-2.0-2.9-0.9","f88","[""R""]","","","","","","null","key","null","null","16.686366666666192","798","448.5","1","1","1","1","1","","",""
"","psychophysics","33","290184","0.0-2.0-0.10","f88","[""R""]","","","","","","15816","key","m","m","16.685844287158734","798","448.5","1","0","1","1","0","false","",""
"","psychophysics","34","291192","0.0-2.0-1.10","f88","[""R""]","","","","","","null","key","null","null","16.686949152542848","798","448.5","1","0","1","1","0","","",""
"","psychophysics","35","292201","0.0-2.0-3.10-0.10","f88","[""R""]","","","","","","null","key","null","null","16.686833333333684","798","448.5","1","0","1","1","0","","",""
"","psychophysics","36","298006","0.0-2.0-0.11","f88","[""R""]","","","","","","5100","key","m","m","16.685939306358442","798","448.5","1","0","0","1","0","false","",""
"","psychophysics","37","299013","0.0-2.0-1.11","f88","[""R""]","","","","","","null","key","null","null","16.68476666666684","798","448.5","1","0","0","1","0","","",""
"","psychophysics","38","300022","0.0-2.0-3.11-0.11","f88","[""R""]","","","","","","null","key","null","null","16.685949152542705","798","448.5","1","0","0","1","0","","",""
"","psychophysics","39","302350","0.0-2.0-0.12","f88","[""R""]","","","","","","1621","key","z","z","16.68627338129491","798","448.5","1","0","1","0","1","true","",""
"","psychophysics","40","303357","0.0-2.0-1.12","f88","[""R""]","","","","","","null","key","null","null","16.68455932203333","798","448.5","1","0","1","0","1","","",""
"","psychophysics","41","304365","0.0-2.0-2.12-0.12","f88","[""R""]","","","","","","null","key","null","null","16.687883333333108","798","448.5","1","0","1","0","1","","",""
"","psychophysics","42","309293","0.0-2.0-0.13","f88","[""R""]","","","","","","4224","key","m","m","16.686149659863954","798","448.5","2","0","1","1","1","true","",""
"","psychophysics","43","310301","0.0-2.0-1.13","f88","[""R""]","","","","","","null","key","null","null","16.686762711864905","798","448.5","2","0","1","1","1","","",""
"","psychophysics","44","311312","0.0-2.0-2.13-0.13","f88","[""R""]","","","","","","null","key","null","null","16.68685000000017","798","448.5","2","0","1","1","1","","",""
"","psychophysics","45","313046","0.0-2.0-0.14","f88","[""R""]","","","","","","1029","key","z","z","16.686155339805815","798","448.5","1","0","1","0","1","true","",""
"","psychophysics","46","314053","0.0-2.0-1.14","f88","[""R""]","","","","","","null","key","null","null","16.685745762711413","798","448.5","1","0","1","0","1","","",""
"","psychophysics","47","315063","0.0-2.0-2.14-0.14","f88","[""R""]","","","","","","null","key","null","null","16.686799999999735","798","448.5","1","0","1","0","1","","",""
"","psychophysics","48","317165","0.0-2.0-0.15","f88","[""R""]","","","","","","1398","key","z","z","16.685863999999594","798","448.5","2","0","0","0","1","false","",""
"","psychophysics","49","318173","0.0-2.0-1.15","f88","[""R""]","","","","","","null","key","null","null","16.685966101694078","798","448.5","2","0","0","0","1","","",""
"","psychophysics","50","319183","0.0-2.0-3.15-0.15","f88","[""R""]","","","","","","null","key","null","null","16.685916666667133","798","448.5","2","0","0","0","1","","",""
"","psychophysics","51","323166","0.0-2.0-0.16","f88","[""R""]","","","","","","3278","key","m","m","16.68586919831214","798","448.5","1","1","0","1","1","false","",""
"","psychophysics","52","324174","0.0-2.0-1.16","f88","[""R""]","","","","","","null","key","null","null","16.686633333333884","798","448.5","1","1","0","1","1","","",""
"","psychophysics","53","325184","0.0-2.0-3.16-0.16","f88","[""R""]","","","","","","null","key","null","null","16.687220338982595","798","448.5","1","1","0","1","1","","",""
"","psychophysics","54","328878","0.0-2.0-0.17","f88","[""R""]","","","","","","2987","key","z","z","16.686090497737506","798","448.5","2","1","0","1","0","false","",""
"","psychophysics","55","329885","0.0-2.0-1.17","f88","[""R""]","","","","","","null","key","null","null","16.68564406779725","798","448.5","2","1","0","1","0","","",""
"","psychophysics","56","330896","0.0-2.0-3.17-0.17","f88","[""R""]","","","","","","null","key","null","null","16.686650000000373","798","448.5","2","1","0","1","0","","",""
"","psychophysics","57","337889","0.0-2.0-0.18","f88","[""R""]","","","","","","6288","key","m","m","16.68581818181823","798","448.5","2","1","0","1","0","true","",""
"","psychophysics","58","338896","0.0-2.0-1.18","f88","[""R""]","","","","","","null","key","null","null","16.68567796610197","798","448.5","2","1","0","1","0","","",""
"","psychophysics","59","339907","0.0-2.0-2.18-0.18","f88","[""R""]","","","","","","null","key","null","null","16.68670000000081","798","448.5","2","1","0","1","0","","",""
"","psychophysics","60","342117","0.0-2.0-0.19","f88","[""R""]","","","","","","1507","key","z","z","16.686236641221353","798","448.5","1","1","1","1","1","true","",""
"","psychophysics","61","343127","0.0-2.0-1.19","f88","[""R""]","","","","","","null","key","null","null","16.68685000000017","798","448.5","1","1","1","1","1","","",""
"","psychophysics","62","344135","0.0-2.0-2.19-0.19","f88","[""R""]","","","","","","null","key","null","null","16.685898305084635","798","448.5","1","1","1","1","1","","",""
"","psychophysics","63","349390","0.0-2.0-0.20","f88","[""R""]","","","","","","4551","key","z","z","16.686028662420384","798","448.5","1","1","1","0","1","true","",""
"","psychophysics","64","350397","0.0-2.0-1.20","f88","[""R""]","","","","","","null","key","null","null","16.686728813559196","798","448.5","1","1","1","0","1","","",""
"","psychophysics","65","351407","0.0-2.0-2.20-0.20","f88","[""R""]","","","","","","null","key","null","null","16.686599999999938","798","448.5","1","1","1","0","1","","",""
"","psychophysics","66","355509","0.0-2.0-0.21","f88","[""R""]","","","","","","3399","key","m","m","16.686008163265246","798","448.5","1","1","0","1","1","false","",""
"","psychophysics","67","356516","0.0-2.0-1.21","f88","[""R""]","","","","","","null","key","null","null","16.685847457627553","798","448.5","1","1","0","1","1","","",""
"","psychophysics","68","357527","0.0-2.0-3.21-0.21","f88","[""R""]","","","","","","null","key","null","null","16.68693333333261","798","448.5","1","1","0","1","1","","",""
"","psychophysics","69","360264","0.0-2.0-0.22","f88","[""R""]","","","","","","2034","key","z","z","16.68630674846636","798","448.5","1","0","1","0","1","true","",""
"","psychophysics","70","361271","0.0-2.0-1.22","f88","[""R""]","","","","","","null","key","null","null","16.685881355932274","798","448.5","1","0","1","0","1","","",""
"","psychophysics","71","362282","0.0-2.0-2.22-0.22","f88","[""R""]","","","","","","null","key","null","null","16.689849999999083","798","448.5","1","0","1","0","1","","",""
"","psychophysics","72","364773","0.0-2.0-0.23","f88","[""R""]","","","","","","1787","key","m","m","16.685749999999864","798","448.5","2","1","0","1","0","true","",""
"","psychophysics","73","365781","0.0-2.0-1.23","f88","[""R""]","","","","","","null","key","null","null","16.685728813559052","798","448.5","2","1","0","1","0","","",""
"","psychophysics","74","366791","0.0-2.0-2.23-0.23","f88","[""R""]","","","","","","null","key","null","null","16.68676666666676","798","448.5","2","1","0","1","0","","",""
"","psychophysics","75","375165","0.0-2.0-0.24","f88","[""R""]","","","","","","7670","key","m","m","16.685968063872224","798","448.5","1","1","1","1","0","false","",""
"","psychophysics","76","376173","0.0-2.0-1.24","f88","[""R""]","","","","","","null","key","null","null","16.686305084745243","798","448.5","1","1","1","1","0","","",""
"","psychophysics","77","377183","0.0-2.0-3.24-0.24","f88","[""R""]","","","","","","null","key","null","null","16.686816666667195","798","448.5","1","1","1","1","0","","",""
"","psychophysics","78","379782","0.0-2.0-0.25","f88","[""R""]","","","","","","1896","key","m","m","16.68592207792197","798","448.5","2","0","0","1","1","true","",""
"","psychophysics","79","380790","0.0-2.0-1.25","f88","[""R""]","","","","","","null","key","null","null","16.68678333333325","798","448.5","2","0","0","1","1","","",""
"","psychophysics","80","381800","0.0-2.0-2.25-0.25","f88","[""R""]","","","","","","null","key","null","null","16.686694915254474","798","448.5","2","0","0","1","1","","",""
"","psychophysics","81","385577","0.0-2.0-0.26","f88","[""R""]","","","","","","3071","key","z","z","16.685876106194826","798","448.5","1","0","1","1","1","true","",""
"","psychophysics","82","386583","0.0-2.0-1.26","f88","[""R""]","","","","","","null","key","null","null","16.6861186440673","798","448.5","1","0","1","1","1","","",""
"","psychophysics","83","387594","0.0-2.0-2.26-0.26","f88","[""R""]","","","","","","null","key","null","null","16.68676666666676","798","448.5","1","0","1","1","1","","",""
"","psychophysics","84","392101","0.0-2.0-0.27","f88","[""R""]","","","","","","3802","key","m","m","16.685810408921743","798","448.5","1","1","1","0","1","false","",""
"","psychophysics","85","393107","0.0-2.0-1.27","f88","[""R""]","","","","","","null","key","null","null","16.68566101694961","798","448.5","1","1","1","0","1","","",""
"","psychophysics","86","394118","0.0-2.0-3.27-0.27","f88","[""R""]","","","","","","null","key","null","null","16.68693333333358","798","448.5","1","1","1","0","1","","",""
"","psychophysics","87","397341","0.0-2.0-0.28","f88","[""R""]","","","","","","2519","key","m","m","16.685812499999884","798","448.5","2","0","0","1","1","true","",""
"","psychophysics","88","398349","0.0-2.0-1.28","f88","[""R""]","","","","","","null","key","null","null","16.685474576270682","798","448.5","2","0","0","1","1","","",""
"","psychophysics","89","399359","0.0-2.0-2.28-0.28","f88","[""R""]","","","","","","null","key","null","null","16.68678333333325","798","448.5","2","0","0","1","1","","",""
"","psychophysics","90","402053","0.0-2.0-0.29","f88","[""R""]","","","","","","1990","key","m","m","16.685768749999987","798","448.5","2","0","1","1","1","true","",""
"","psychophysics","91","403062","0.0-2.0-1.29","f88","[""R""]","","","","","","null","key","null","null","16.68670000000081","798","448.5","2","0","1","1","1","","",""
"","psychophysics","92","404070","0.0-2.0-2.29-0.29","f88","[""R""]","","","","","","null","key","null","null","16.685983050847426","798","448.5","2","0","1","1","1","","",""
"","psychophysics","93","407725","0.0-2.0-0.30","f88","[""R""]","","","","","","2951","key","m","m","16.68612844036698","798","448.5","2","1","0","1","0","true","",""
"","psychophysics","94","408734","0.0-2.0-1.30","f88","[""R""]","","","","","","null","key","null","null","16.684866666666736","798","448.5","2","1","0","1","0","","",""
"","psychophysics","95","409740","0.0-2.0-2.30-0.30","f88","[""R""]","","","","","","null","key","null","null","16.687000000000914","798","448.5","2","1","0","1","0","","",""
"","psychophysics","96","412813","0.0-2.0-0.31","f88","[""R""]","","","","","","2369","key","m","m","16.686169398906884","798","448.5","2","0","0","1","1","true","",""
"","psychophysics","97","413821","0.0-2.0-1.31","f88","[""R""]","","","","","","null","key","null","null","16.686610169491683","798","448.5","2","0","0","1","1","","",""
"","psychophysics","98","414830","0.0-2.0-2.31-0.31","f88","[""R""]","","","","","","null","key","null","null","16.68550000000008","798","448.5","2","0","0","1","1","","",""
"","psychophysics","99","424261","0.0-2.0-0.32","f88","[""R""]","","","","","","8727","key","m","m","16.685946808510657","798","448.5","2","1","0","1","1","true","",""
"","psychophysics","100","425271","0.0-2.0-1.32","f88","[""R""]","","","","","","null","key","null","null","16.68638333333365","798","448.5","2","1","0","1","1","","",""
"","psychophysics","101","426280","0.0-2.0-2.32-0.32","f88","[""R""]","","","","","","null","key","null","null","16.686559322033613","798","448.5","2","1","0","1","1","","",""
"","psychophysics","102","431133","0.0-2.0-0.33","f88","[""R""]","","","","","","4149","key","z","z","16.68604137931031","798","448.5","1","1","1","1","0","true","",""
"","psychophysics","103","432140","0.0-2.0-1.33","f88","[""R""]","","","","","","null","key","null","null","16.685983050847426","798","448.5","1","1","1","1","0","","",""
"","psychophysics","104","433150","0.0-2.0-2.33-0.33","f88","[""R""]","","","","","","null","key","null","null","16.68695000000007","798","448.5","1","1","1","1","0","","",""
"","psychophysics","105","436677","0.0-2.0-0.34","f88","[""R""]","","","","","","2824","key","z","z","16.685780952380792","798","448.5","1","1","1","1","1","true","",""
"","psychophysics","106","437685","0.0-2.0-1.34","f88","[""R""]","","","","","","null","key","null","null","16.68713333333338","798","448.5","1","1","1","1","1","","",""
"","psychophysics","107","438694","0.0-2.0-2.34-0.34","f88","[""R""]","","","","","","null","key","null","null","16.68718644067787","798","448.5","1","1","1","1","1","","",""
"","psychophysics","108","448173","0.0-2.0-0.35","f88","[""R""]","","","","","","8774","key","m","m","16.685924162257486","798","448.5","1","0","1","1","0","false","",""
"","psychophysics","109","449182","0.0-2.0-1.35","f88","[""R""]","","","","","","null","key","null","null","16.686633333332914","798","448.5","1","0","1","1","0","","",""
"","psychophysics","110","450191","0.0-2.0-3.35-0.35","f88","[""R""]","","","","","","null","key","null","null","16.686762711864905","798","448.5","1","0","1","1","0","","",""
"","psychophysics","111","455397","0.0-2.0-0.36","f88","[""R""]","","","","","","4502","key","z","z","16.685993569131778","798","448.5","1","1","1","1","1","true","",""
"","psychophysics","112","456407","0.0-2.0-1.36","f88","[""R""]","","","","","","null","key","null","null","16.68675000000027","798","448.5","1","1","1","1","1","","",""
"","psychophysics","113","457415","0.0-2.0-2.36-0.36","f88","[""R""]","","","","","","null","key","null","null","16.68569491525433","798","448.5","1","1","1","1","1","","",""
"","psychophysics","114","460496","0.0-2.0-0.37","f88","[""R""]","","","","","","2378","key","z","z","16.68607608695627","798","448.5","2","0","0","0","1","false","",""
"","psychophysics","115","461503","0.0-2.0-1.37","f88","[""R""]","","","","","","null","key","null","null","16.68571186440669","798","448.5","2","0","0","0","1","","",""
"","psychophysics","116","462515","0.0-2.0-3.37-0.37","f88","[""R""]","","","","","","null","key","null","null","16.686966666666557","798","448.5","2","0","0","0","1","","",""
"","psychophysics","117","468309","0.0-2.0-0.38","f88","[""R""]","","","","","","5090","key","z","z","16.685710982658943","798","448.5","2","0","1","0","0","false","",""
"","psychophysics","118","469316","0.0-2.0-1.38","f88","[""R""]","","","","","","null","key","null","null","16.685983050847426","798","448.5","2","0","1","0","0","","",""
"","psychophysics","119","470326","0.0-2.0-3.38-0.38","f88","[""R""]","","","","","","null","key","null","null","16.68693333333358","798","448.5","2","0","1","0","0","","",""
"","psychophysics","120","474317","0.0-2.0-0.39","f88","[""R""]","","","","","","3287","key","m","m","16.68599159663867","798","448.5","1","1","1","0","1","false","",""
"","psychophysics","121","475325","0.0-2.0-1.39","f88","[""R""]","","","","","","null","key","null","null","16.68645762711846","798","448.5","1","1","1","0","1","","",""
"","psychophysics","122","476335","0.0-2.0-3.39-0.39","f88","[""R""]","","","","","","null","key","null","null","16.685699999999876","798","448.5","1","1","1","0","1","","",""
"","psychophysics","123","483229","0.0-2.0-0.40","f88","[""R""]","","","","","","6190","key","m","m","16.68591990291259","798","448.5","2","0","1","1","1","true","",""
"","psychophysics","124","484239","0.0-2.0-1.40","f88","[""R""]","","","","","","null","key","null","null","16.685616666667435","798","448.5","2","0","1","1","1","","",""
"","psychophysics","125","485247","0.0-2.0-2.40-0.40","f88","[""R""]","","","","","","null","key","null","null","16.686610169491683","798","448.5","2","0","1","1","1","","",""
"","psychophysics","126","487349","0.0-2.0-0.41","f88","[""R""]","","","","","","1398","key","z","z","16.685743999999946","798","448.5","1","0","0","1","1","true","",""
"","psychophysics","127","488353","0.0-2.0-1.41","f88","[""R""]","","","","","","null","key","null","null","16.683661016949326","798","448.5","1","0","0","1","1","","",""
"","psychophysics","128","489363","0.0-2.0-2.41-0.41","f88","[""R""]","","","","","","null","key","null","null","16.686249999999806","798","448.5","1","0","0","1","1","","",""
"","psychophysics","129","491048","0.0-2.0-0.42","f88","[""R""]","","","","","","981","key","z","z","16.6860699999996","798","448.5","1","0","1","1","1","true","",""
"","psychophysics","130","492056","0.0-2.0-1.42","f88","[""R""]","","","","","","null","key","null","null","16.685847457627553","798","448.5","1","0","1","1","1","","",""
"","psychophysics","131","493066","0.0-2.0-2.42-0.42","f88","[""R""]","","","","","","null","key","null","null","16.687049999999967","798","448.5","1","0","1","1","1","","",""
"","psychophysics","132","496061","0.0-2.0-0.43","f88","[""R""]","","","","","","2292","key","m","m","16.685837078651836","798","448.5","1","1","0","0","1","false","",""
"","psychophysics","133","497070","0.0-2.0-1.43","f88","[""R""]","","","","","","null","key","null","null","16.685816666666263","798","448.5","1","1","0","0","1","","",""
"","psychophysics","134","498079","0.0-2.0-3.43-0.43","f88","[""R""]","","","","","","null","key","null","null","16.685915254236996","798","448.5","1","1","0","0","1","","",""
"","psychophysics","135","500949","0.0-2.0-0.44","f88","[""R""]","","","","","","2166","key","z","z","16.68625146198823","798","448.5","2","1","1","1","0","false","",""
"","psychophysics","136","501960","0.0-2.0-1.44","f88","[""R""]","","","","","","null","key","null","null","16.686233333333316","798","448.5","2","1","1","1","0","","",""
"","psychophysics","137","502968","0.0-2.0-3.44-0.44","f88","[""R""]","","","","","","null","key","null","null","16.68572881356004","798","448.5","2","1","1","1","0","","",""
"","psychophysics","138","504957","0.0-2.0-0.45","f88","[""R""]","","","","","","1284","key","m","m","16.686525423728398","798","448.5","2","1","1","1","1","true","",""
"","psychophysics","139","505965","0.0-2.0-1.45","f88","[""R""]","","","","","","null","key","null","null","16.686466666667062","798","448.5","2","1","1","1","1","","",""
"","psychophysics","140","506975","0.0-2.0-2.45-0.45","f88","[""R""]","","","","","","null","key","null","null","16.685898305084635","798","448.5","2","1","1","1","1","","",""
"","psychophysics","141","509302","0.0-2.0-0.46","f88","[""R""]","","","","","","1623","key","z","z","16.68630215827344","798","448.5","2","0","0","0","0","false","",""
"","psychophysics","142","510309","0.0-2.0-1.46","f88","[""R""]","","","","","","null","key","null","null","16.685796610169483","798","448.5","2","0","0","0","0","","",""
"","psychophysics","143","511320","0.0-2.0-3.46-0.46","f88","[""R""]","","","","","","null","key","null","null","16.68628333333375","798","448.5","2","0","0","0","0","","",""
"","psychophysics","144","514008","0.0-2.0-0.47","f88","[""R""]","","","","","","1984","key","z","z","16.68579374999972","798","448.5","1","1","1","1","1","true","",""
"","psychophysics","145","515015","0.0-2.0-1.47","f88","[""R""]","","","","","","null","key","null","null","16.685728813559052","798","448.5","1","1","1","1","1","","",""
"","psychophysics","146","516025","0.0-2.0-2.47-0.47","f88","[""R""]","","","","","","null","key","null","null","16.685249999999844","798","448.5","1","1","1","1","1","","",""
"","psychophysics","147","519589","0.0-2.0-0.48","f88","[""R""]","","","","","","2860","key","m","m","16.685778301886835","798","448.5","1","1","1","0","1","false","",""
"","psychophysics","148","520597","0.0-2.0-1.48","f88","[""R""]","","","","","","null","key","null","null","16.68686666666666","798","448.5","1","1","1","0","1","","",""
"","psychophysics","149","521606","0.0-2.0-3.48-0.48","f88","[""R""]","","","","","","null","key","null","null","16.685983050847426","798","448.5","1","1","1","0","1","","",""
"","psychophysics","150","524373","0.0-2.0-0.49","f88","[""R""]","","","","","","2064","key","m","m","16.686175757576006","798","448.5","2","1","0","1","1","true","",""
"","psychophysics","151","525380","0.0-2.0-1.49","f88","[""R""]","","","","","","null","key","null","null","16.685644067796265","798","448.5","2","1","0","1","1","","",""
"","psychophysics","152","526390","0.0-2.0-2.49-0.49","f88","[""R""]","","","","","","null","key","null","null","16.686816666667195","798","448.5","2","1","0","1","1","","",""
"","psychophysics","153","528341","0.0-2.0-0.50","f88","[""R""]","","","","","","1246","key","m","m","16.686224137931653","798","448.5","2","0","1","1","1","true","",""
"","psychophysics","154","529348","0.0-2.0-1.50","f88","[""R""]","","","","","","null","key","null","null","16.68576271186575","798","448.5","2","0","1","1","1","","",""
"","psychophysics","155","530359","0.0-2.0-2.50-0.50","f88","[""R""]","","","","","","null","key","null","null","16.686566666666963","798","448.5","2","0","1","1","1","","",""
"","psychophysics","156","532685","0.0-2.0-0.51","f88","[""R""]","","","","","","1622","key","z","z","16.68586956521756","798","448.5","1","0","1","1","1","true","",""
"","psychophysics","157","533696","0.0-2.0-1.51","f88","[""R""]","","","","","","null","key","null","null","16.686716666666324","798","448.5","1","0","1","1","1","","",""
"","psychophysics","158","534705","0.0-2.0-2.51-0.51","f88","[""R""]","","","","","","null","key","null","null","16.685711864405707","798","448.5","1","0","1","1","1","","",""
"","psychophysics","159","536550","0.0-2.0-0.52","f88","[""R""]","","","","","","1141","key","z","z","16.68588181818116","798","448.5","2","0","1","0","0","false","",""
"","psychophysics","160","537557","0.0-2.0-1.52","f88","[""R""]","","","","","","null","key","null","null","16.684728813558912","798","448.5","2","0","1","0","0","","",""
"","psychophysics","161","538568","0.0-2.0-3.52-0.52","f88","[""R""]","","","","","","null","key","null","null","16.686449999998633","798","448.5","2","0","1","0","0","","",""
"","psychophysics","162","540541","0.0-2.0-0.53","f88","[""R""]","","","","","","1269","key","m","m","16.68594871794817","798","448.5","1","0","0","1","1","false","",""
"","psychophysics","163","541548","0.0-2.0-1.53","f88","[""R""]","","","","","","null","key","null","null","16.685779661017122","798","448.5","1","0","0","1","1","","",""
"","psychophysics","164","542559","0.0-2.0-3.53-0.53","f88","[""R""]","","","","","","null","key","null","null","16.68631666666673","798","448.5","1","0","0","1","1","","",""
"","psychophysics","165","544559","0.0-2.0-0.54","f88","[""R""]","","","","","","1297","key","z","z","16.685781512605104","798","448.5","2","0","0","0","0","false","",""
"","psychophysics","166","545567","0.0-2.0-1.54","f88","[""R""]","","","","","","null","key","null","null","16.68569491525433","798","448.5","2","0","0","0","0","","",""
"","psychophysics","167","546577","0.0-2.0-3.54-0.54","f88","[""R""]","","","","","","null","key","null","null","16.687150000000837","798","448.5","2","0","0","0","0","","",""
"","psychophysics","168","548597","0.0-2.0-0.55","f88","[""R""]","","","","","","1316","key","z","z","16.685625000000194","798","448.5","1","1","1","1","1","true","",""
"","psychophysics","169","549604","0.0-2.0-1.55","f88","[""R""]","","","","","","null","key","null","null","16.684762711863634","798","448.5","1","1","1","1","1","","",""
"","psychophysics","170","550615","0.0-2.0-2.55-0.55","f88","[""R""]","","","","","","null","key","null","null","16.686416666665657","798","448.5","1","1","1","1","1","","",""
"","psychophysics","171","552805","0.0-2.0-0.56","f88","[""R""]","","","","","","1486","key","m","m","16.686023076922776","798","448.5","2","1","0","1","0","true","",""
"","psychophysics","172","553812","0.0-2.0-1.56","f88","[""R""]","","","","","","null","key","null","null","16.685677966100986","798","448.5","2","1","0","1","0","","",""
"","psychophysics","173","554823","0.0-2.0-2.56-0.56","f88","[""R""]","","","","","","null","key","null","null","16.686650000000373","798","448.5","2","1","0","1","0","","",""
"","psychophysics","174","557981","0.0-2.0-0.57","f88","[""R""]","","","","","","2454","key","z","z","16.685893617021144","798","448.5","1","1","1","1","1","true","",""
"","psychophysics","175","558991","0.0-2.0-1.57","f88","[""R""]","","","","","","null","key","null","null","16.686366666665222","798","448.5","1","1","1","1","1","","",""
"","psychophysics","176","560000","0.0-2.0-2.57-0.57","f88","[""R""]","","","","","","null","key","null","null","16.685813559321844","798","448.5","1","1","1","1","1","","",""
"","psychophysics","177","562664","0.0-2.0-0.58","f88","[""R""]","","","","","","1960","key","m","m","16.686232704402727","798","448.5","2","0","1","1","1","true","",""
"","psychophysics","178","563672","0.0-2.0-1.58","f88","[""R""]","","","","","","null","key","null","null","16.685711864405707","798","448.5","2","0","1","1","1","","",""
"","psychophysics","179","564681","0.0-2.0-2.58-0.58","f88","[""R""]","","","","","","null","key","null","null","16.686549999999503","798","448.5","2","0","1","1","1","","",""
"","psychophysics","180","570685","0.0-2.0-0.59","f88","[""R""]","","","","","","5300","key","m","m","16.68586871508371","798","448.5","2","0","1","0","1","true","",""
"","psychophysics","181","571693","0.0-2.0-1.59","f88","[""R""]","","","","","","null","key","null","null","16.686883333333146","798","448.5","2","0","1","0","1","","",""
"","psychophysics","182","572701","0.0-2.0-2.59-0.59","f88","[""R""]","","","","","","null","key","null","null","16.68659322034031","798","448.5","2","0","1","0","1","","",""
"","psychophysics","183","578716","0.0-2.0-0.60","f88","[""R""]","","","","","","5308","key","m","m","16.68599722222231","798","448.5","1","0","0","1","0","false","",""
"","psychophysics","184","579724","0.0-2.0-1.60","f88","[""R""]","","","","","","null","key","null","null","16.68679661016864","798","448.5","1","0","0","1","0","","",""
"","psychophysics","185","580733","0.0-2.0-3.60-0.60","f88","[""R""]","","","","","","null","key","null","null","16.686816666667195","798","448.5","1","0","0","1","0","","",""
"","psychophysics","186","582956","0.0-2.0-0.61","f88","[""R""]","","","","","","1520","key","z","z","16.68623484848473","798","448.5","2","1","0","0","1","false","",""
"","psychophysics","187","583964","0.0-2.0-1.61","f88","[""R""]","","","","","","null","key","null","null","16.68698305084757","798","448.5","2","1","0","0","1","","",""
"","psychophysics","188","584973","0.0-2.0-3.61-0.61","f88","[""R""]","","","","","","null","key","null","null","16.68629999999927","798","448.5","2","1","0","0","1","","",""
"","psychophysics","189","586996","0.0-2.0-0.62","f88","[""R""]","","","","","","1319","key","m","m","16.68584166666745","798","448.5","2","0","0","1","1","true","",""
"","psychophysics","190","588004","0.0-2.0-1.62","f88","[""R""]","","","","","","null","key","null","null","16.687220338982595","798","448.5","2","0","0","1","1","","",""
"","psychophysics","191","589015","0.0-2.0-2.62-0.62","f88","[""R""]","","","","","","null","key","null","null","16.68631666666673","798","448.5","2","0","0","1","1","","",""
"","psychophysics","192","590925","0.0-2.0-0.63","f88","[""R""]","","","","","","1207","key","m","m","16.68635398230054","798","448.5","2","1","1","1","1","true","",""
"","psychophysics","193","591933","0.0-2.0-1.63","f88","[""R""]","","","","","","null","key","null","null","16.686333333334186","798","448.5","2","1","1","1","1","","",""
"","psychophysics","194","592941","0.0-2.0-2.63-0.63","f88","[""R""]","","","","","","null","key","null","null","16.685711864405707","798","448.5","2","1","1","1","1","","",""
"","psychophysics","195","596765","0.0-2.0-0.64","f88","[""R""]","","","","","","3117","key","z","z","16.686118421052367","798","448.5","2","0","0","0","0","false","",""
"","psychophysics","196","597773","0.0-2.0-1.64","f88","[""R""]","","","","","","null","key","null","null","16.68465000000045","798","448.5","2","0","0","0","0","","",""
"","psychophysics","197","598784","0.0-2.0-3.64-0.64","f88","[""R""]","","","","","","null","key","null","null","16.686796610170614","798","448.5","2","0","0","0","0","","",""
"","psychophysics","198","601301","0.0-2.0-0.65","f88","[""R""]","","","","","","1812","key","z","z","16.68565333333332","798","448.5","1","0","1","1","1","true","",""
"","psychophysics","199","602309","0.0-2.0-1.65","f88","[""R""]","","","","","","null","key","null","null","16.686349999999706","798","448.5","1","0","1","1","1","","",""
"","psychophysics","200","603317","0.0-2.0-2.65-0.65","f88","[""R""]","","","","","","null","key","null","null","16.685661016947638","798","448.5","1","0","1","1","1","","",""
"","psychophysics","201","608700","0.0-2.0-0.66","f88","[""R""]","","","","","","4680","key","z","z","16.686096273291774","798","448.5","2","0","1","0","0","false","",""
"","psychophysics","202","609707","0.0-2.0-1.66","f88","[""R""]","","","","","","null","key","null","null","16.685593220338195","798","448.5","2","0","1","0","0","","",""
"","psychophysics","203","610717","0.0-2.0-3.66-0.66","f88","[""R""]","","","","","","null","key","null","null","16.687116666665922","798","448.5","2","0","1","0","0","","",""
"","psychophysics","204","612749","0.0-2.0-0.67","f88","[""R""]","","","","","","1328","key","m","m","16.685799999999777","798","448.5","1","1","0","1","0","false","",""
"","psychophysics","205","613757","0.0-2.0-1.67","f88","[""R""]","","","","","","null","key","null","null","16.686266666666295","798","448.5","1","1","0","1","0","","",""
"","psychophysics","206","614767","0.0-2.0-3.67-0.67","f88","[""R""]","","","","","","null","key","null","null","16.68647457627082","798","448.5","1","1","0","1","0","","",""
"","psychophysics","207","616708","0.0-2.0-0.68","f88","[""R""]","","","","","","1235","key","z","z","16.68636206896566","798","448.5","2","0","0","0","0","false","",""
"","psychophysics","208","617715","0.0-2.0-1.68","f88","[""R""]","","","","","","null","key","null","null","16.68561016949154","798","448.5","2","0","0","0","0","","",""
"","psychophysics","209","618726","0.0-2.0-3.68-0.68","f88","[""R""]","","","","","","null","key","null","null","16.68693333333358","798","448.5","2","0","0","0","0","","",""
"","psychophysics","210","622599","0.0-2.0-0.69","f88","[""R""]","","","","","","3169","key","m","m","16.68581385281364","798","448.5","2","1","1","0","1","true","",""
"","psychophysics","211","623606","0.0-2.0-1.69","f88","[""R""]","","","","","","null","key","null","null","16.68569491525433","798","448.5","2","1","1","0","1","","",""
"","psychophysics","212","624617","0.0-2.0-2.69-0.69","f88","[""R""]","","","","","","null","key","null","null","16.68670000000081","798","448.5","2","1","1","0","1","","",""
"","psychophysics","213","627708","0.0-2.0-0.70","f88","[""R""]","","","","","","2388","key","z","z","16.685907608695942","798","448.5","2","1","1","0","0","false","",""
"","psychophysics","214","628716","0.0-2.0-1.70","f88","[""R""]","","","","","","null","key","null","null","16.6859999999988","798","448.5","2","1","1","0","0","","",""
"","psychophysics","215","629726","0.0-2.0-3.70-0.70","f88","[""R""]","","","","","","null","key","null","null","16.68676666666676","798","448.5","2","1","1","0","0","","",""
"","psychophysics","216","632327","0.0-2.0-0.71","f88","[""R""]","","","","","","1897","key","z","z","16.685696774193147","798","448.5","1","0","0","1","0","true","",""
"","psychophysics","217","633335","0.0-2.0-1.71","f88","[""R""]","","","","","","null","key","null","null","16.686372881356657","798","448.5","1","0","0","1","0","","",""
"","psychophysics","218","634345","0.0-2.0-2.71-0.71","f88","[""R""]","","","","","","null","key","null","null","16.686483333333552","798","448.5","1","0","0","1","0","","",""
"","psychophysics","219","636799","0.0-2.0-0.72","f88","[""R""]","","","","","","1750","key","m","m","16.68613013698662","798","448.5","1","0","0","1","1","false","",""
"","psychophysics","220","637806","0.0-2.0-1.72","f88","[""R""]","","","","","","null","key","null","null","16.68561016949154","798","448.5","1","0","0","1","1","","",""
"","psychophysics","221","638817","0.0-2.0-3.72-0.72","f88","[""R""]","","","","","","null","key","null","null","16.68631666666673","798","448.5","1","0","0","1","1","","",""
"","psychophysics","222","641693","0.0-2.0-0.73","f88","[""R""]","","","","","","2172","key","z","z","16.686011695906203","798","448.5","2","0","0","0","1","false","",""
"","psychophysics","223","642701","0.0-2.0-1.73","f88","[""R""]","","","","","","null","key","null","null","16.686711864405847","798","448.5","2","0","0","0","1","","",""
"","psychophysics","224","643709","0.0-2.0-3.73-0.73","f88","[""R""]","","","","","","null","key","null","null","16.686066666668435","798","448.5","2","0","0","0","1","","",""
"","psychophysics","225","646196","0.0-2.0-0.74","f88","[""R""]","","","","","","1783","key","z","z","16.686378378377807","798","448.5","1","0","0","1","0","true","",""
"","psychophysics","226","647204","0.0-2.0-1.74","f88","[""R""]","","","","","","null","key","null","null","16.685949152542705","798","448.5","1","0","0","1","0","","",""
"","psychophysics","227","648214","0.0-2.0-2.74-0.74","f88","[""R""]","","","","","","null","key","null","null","16.686433333333117","798","448.5","1","0","0","1","0","","",""
"","psychophysics","228","650998","0.0-2.0-0.75","f88","[""R""]","","","","","","2080","key","z","z","16.685963855421658","798","448.5","1","1","1","1","1","true","",""
"","psychophysics","229","652005","0.0-2.0-1.75","f88","[""R""]","","","","","","null","key","null","null","16.685271186440378","798","448.5","1","1","1","1","1","","",""
"","psychophysics","230","653016","0.0-2.0-2.75-0.75","f88","[""R""]","","","","","","null","key","null","null","16.686599999999938","798","448.5","1","1","1","1","1","","",""
"","psychophysics","231","662311","0.0-2.0-0.76","f88","[""R""]","","","","","","8590","key","z","z","16.68582913669064","798","448.5","1","1","0","1","1","true","",""
"","psychophysics","232","663318","0.0-2.0-1.76","f88","[""R""]","","","","","","null","key","null","null","16.685813559321844","798","448.5","1","1","0","1","1","","",""
"","psychophysics","233","664329","0.0-2.0-2.76-0.76","f88","[""R""]","","","","","","null","key","null","null","16.68621666666586","798","448.5","1","1","0","1","1","","",""
"","psychophysics","234","668535","0.0-2.0-0.77","f88","[""R""]","","","","","","3502","key","m","m","16.685776892430297","798","448.5","1","0","0","0","1","false","",""
"","psychophysics","235","669542","0.0-2.0-1.77","f88","[""R""]","","","","","","null","key","null","null","16.685627118642916","798","448.5","1","0","0","0","1","","",""
"","psychophysics","236","670553","0.0-2.0-3.77-0.77","f88","[""R""]","","","","","","null","key","null","null","16.686883333335086","798","448.5","1","0","0","0","1","","",""
"","psychophysics","237","674581","0.0-2.0-0.78","f88","[""R""]","","","","","","3324","key","z","z","16.68588750000005","798","448.5","1","1","1","0","1","true","",""
"","psychophysics","238","675592","0.0-2.0-1.78","f88","[""R""]","","","","","","null","key","null","null","16.686599999999938","798","448.5","1","1","1","0","1","","",""
"","psychophysics","239","676600","0.0-2.0-2.78-0.78","f88","[""R""]","","","","","","null","key","null","null","16.686254237289145","798","448.5","1","1","1","0","1","","",""
"","psychophysics","240","678933","0.0-2.0-0.79","f88","[""R""]","","","","","","1629","key","z","z","16.68610071942458","798","448.5","2","0","1","0","1","false","",""
"","psychophysics","241","679939","0.0-2.0-1.79","f88","[""R""]","","","","","","null","key","null","null","16.68579661017047","798","448.5","2","0","1","0","1","","",""
"","psychophysics","242","680949","0.0-2.0-3.79-0.79","f88","[""R""]","","","","","","null","key","null","null","16.686799999999735","798","448.5","2","0","1","0","1","","",""
"","psychophysics","243","683765","0.0-2.0-0.80","f88","[""R""]","","","","","","2112","key","m","m","16.6858083832337","798","448.5","2","1","0","1","0","true","",""
"","psychophysics","244","684772","0.0-2.0-1.80","f88","[""R""]","","","","","","null","key","null","null","16.68669999999887","798","448.5","2","1","0","1","0","","",""
"","psychophysics","245","685783","0.0-2.0-2.80-0.80","f88","[""R""]","","","","","","null","key","null","null","16.686915254238126","798","448.5","2","1","0","1","0","","",""
"","psychophysics","246","687573","0.0-2.0-0.81","f88","[""R""]","","","","","","1085","key","m","m","16.686224299065213","798","448.5","2","1","1","1","1","true","",""
"","psychophysics","247","688581","0.0-2.0-1.81","f88","[""R""]","","","","","","null","key","null","null","16.68605084745687","798","448.5","2","1","1","1","1","","",""
"","psychophysics","248","689592","0.0-2.0-2.81-0.81","f88","[""R""]","","","","","","null","key","null","null","16.686883333333146","798","448.5","2","1","1","1","1","","",""
"","psychophysics","249","691932","0.0-2.0-0.82","f88","[""R""]","","","","","","1637","key","m","m","16.685992805755415","798","448.5","1","0","0","1","1","false","",""
"","psychophysics","250","692940","0.0-2.0-1.82","f88","[""R""]","","","","","","null","key","null","null","16.68584745762854","798","448.5","1","0","0","1","1","","",""
"","psychophysics","251","693950","0.0-2.0-3.82-0.82","f88","[""R""]","","","","","","null","key","null","null","16.686633333332914","798","448.5","1","0","0","1","1","","",""
"","psychophysics","252","695540","0.0-2.0-0.83","f88","[""R""]","","","","","","887","key","m","m","16.685882978723384","798","448.5","1","0","0","1","1","false","",""
"","psychophysics","253","696549","0.0-2.0-1.83","f88","[""R""]","","","","","","null","key","null","null","16.686733333333784","798","448.5","1","0","0","1","1","","",""
"","psychophysics","254","697558","0.0-2.0-3.83-0.83","f88","[""R""]","","","","","","null","key","null","null","16.68561016949154","798","448.5","1","0","0","1","1","","",""
"","psychophysics","255","699748","0.0-2.0-0.84","f88","[""R""]","","","","","","1487","key","z","z","16.686330769230754","798","448.5","2","0","0","0","1","false","",""
"","psychophysics","256","700757","0.0-2.0-1.84","f88","[""R""]","","","","","","null","key","null","null","16.68686666666569","798","448.5","2","0","0","0","1","","",""
"","psychophysics","257","701765","0.0-2.0-3.84-0.84","f88","[""R""]","","","","","","null","key","null","null","16.685559322033473","798","448.5","2","0","0","0","1","","",""
"","psychophysics","258","704526","0.0-2.0-0.85","f88","[""R""]","","","","","","2057","key","z","z","16.68587272727269","798","448.5","1","0","1","1","1","true","",""
"","psychophysics","259","705533","0.0-2.0-1.85","f88","[""R""]","","","","","","null","key","null","null","16.68576271186575","798","448.5","1","0","1","1","1","","",""
"","psychophysics","260","706544","0.0-2.0-2.85-0.85","f88","[""R""]","","","","","","null","key","null","null","16.686883333333146","798","448.5","1","0","1","1","1","","",""
"","psychophysics","261","708851","0.0-2.0-0.86","f88","[""R""]","","","","","","1603","key","z","z","16.68554744525578","798","448.5","1","1","1","1","1","true","",""
"","psychophysics","262","709856","0.0-2.0-1.86","f88","[""R""]","","","","","","null","key","null","null","16.687661016949896","798","448.5","1","1","1","1","1","","",""
"","psychophysics","263","710866","0.0-2.0-2.86-0.86","f88","[""R""]","","","","","","null","key","null","null","16.686416666667597","798","448.5","1","1","1","1","1","","",""
"","psychophysics","264","713933","0.0-2.0-0.87","f88","[""R""]","","","","","","2364","key","m","m","16.685675824176172","798","448.5","1","1","0","0","0","false","",""
"","psychophysics","265","714940","0.0-2.0-1.87","f88","[""R""]","","","","","","null","key","null","null","16.68481666666727","798","448.5","1","1","0","0","0","","",""
"","psychophysics","266","715949","0.0-2.0-3.87-0.87","f88","[""R""]","","","","","","null","key","null","null","16.685966101694078","798","448.5","1","1","0","0","0","","",""
"","psychophysics","267","718436","0.0-2.0-0.88","f88","[""R""]","","","","","","1780","key","m","m","16.686270270270857","798","448.5","2","0","1","1","1","true","",""
"","psychophysics","268","719445","0.0-2.0-1.88","f88","[""R""]","","","","","","null","key","null","null","16.68668333333335","798","448.5","2","0","1","1","1","","",""
"","psychophysics","269","720454","0.0-2.0-2.88-0.88","f88","[""R""]","","","","","","null","key","null","null","16.686762711863917","798","448.5","2","0","1","1","1","","",""
"","psychophysics","270","722524","0.0-2.0-0.89","f88","[""R""]","","","","","","1367","key","m","m","16.686390243902256","798","448.5","1","1","1","1","0","false","",""
"","psychophysics","271","723532","0.0-2.0-1.89","f88","[""R""]","","","","","","null","key","null","null","16.686816666667195","798","448.5","1","1","1","1","0","","",""
"","psychophysics","272","724541","0.0-2.0-3.89-0.89","f88","[""R""]","","","","","","null","key","null","null","16.685932203389356","798","448.5","1","1","1","1","0","","",""
"","psychophysics","273","729822","0.0-2.0-0.90","f88","[""R""]","","","","","","4578","key","z","z","16.68602531645565","798","448.5","2","0","0","1","0","false","",""
"","psychophysics","274","730831","0.0-2.0-1.90","f88","[""R""]","","","","","","null","key","null","null","16.685559322033473","798","448.5","2","0","0","1","0","","",""
"","psychophysics","275","731841","0.0-2.0-3.90-0.90","f88","[""R""]","","","","","","null","key","null","null","16.68631666666673","798","448.5","2","0","0","1","0","","",""
"","psychophysics","276","735356","0.0-2.0-0.91","f88","[""R""]","","","","","","2811","key","m","m","16.68569856459324","798","448.5","1","1","1","0","1","false","",""
"","psychophysics","277","736364","0.0-2.0-1.91","f88","[""R""]","","","","","","null","key","null","null","16.685916666665193","798","448.5","1","1","1","0","1","","",""
"","psychophysics","278","737373","0.0-2.0-3.91-0.91","f88","[""R""]","","","","","","null","key","null","null","16.685949152542705","798","448.5","1","1","1","0","1","","",""
"","psychophysics","279","738932","0.0-2.0-0.92","f88","[""R""]","","","","","","855","key","z","z","16.686655913977834","798","448.5","1","1","1","0","1","true","",""
"","psychophysics","280","739940","0.0-2.0-1.92","f88","[""R""]","","","","","","null","key","null","null","16.686067796608242","798","448.5","1","1","1","0","1","","",""
"","psychophysics","281","740950","0.0-2.0-2.92-0.92","f88","[""R""]","","","","","","null","key","null","null","16.686233333333316","798","448.5","1","1","1","0","1","","",""
"","psychophysics","282","744692","0.0-2.0-0.93","f88","[""R""]","","","","","","3038","key","z","z","16.685964125560414","798","448.5","1","0","0","0","1","true","",""
"","psychophysics","283","745699","0.0-2.0-1.93","f88","[""R""]","","","","","","null","key","null","null","16.685644067796265","798","448.5","1","0","0","0","1","","",""
"","psychophysics","284","746709","0.0-2.0-2.93-0.93","f88","[""R""]","","","","","","null","key","null","null","16.686466666666092","798","448.5","1","0","0","0","1","","",""
"","psychophysics","285","748788","0.0-2.0-0.94","f88","[""R""]","","","","","","1375","key","z","z","16.685878048780587","798","448.5","1","1","1","1","1","true","",""
"","psychophysics","286","749796","0.0-2.0-1.94","f88","[""R""]","","","","","","null","key","null","null","16.686799999999735","798","448.5","1","1","1","1","1","","",""
"","psychophysics","287","750805","0.0-2.0-2.94-0.94","f88","[""R""]","","","","","","null","key","null","null","16.68577966101515","798","448.5","1","1","1","1","1","","",""
"","psychophysics","288","752948","0.0-2.0-0.95","f88","[""R""]","","","","","","1435","key","m","m","16.686320312500357","798","448.5","1","0","1","1","0","false","",""
"","psychophysics","289","753955","0.0-2.0-1.95","f88","[""R""]","","","","","","null","key","null","null","16.685966101694078","798","448.5","1","0","1","1","0","","",""
"","psychophysics","290","754967","0.0-2.0-3.95-0.95","f88","[""R""]","","","","","","null","key","null","null","16.686533333333987","798","448.5","1","0","1","1","0","","",""
"","psychophysics","291","757670","0.0-2.0-0.96","f88","[""R""]","","","","","","2000","key","m","m","16.685788819875846","798","448.5","2","1","0","1","0","true","",""
"","psychophysics","292","758678","0.0-2.0-1.96","f88","[""R""]","","","","","","null","key","null","null","16.685779661017122","798","448.5","2","1","0","1","0","","",""
"","psychophysics","293","759688","0.0-2.0-2.96-0.96","f88","[""R""]","","","","","","null","key","null","null","16.686883333333146","798","448.5","2","1","0","1","0","","",""
"","psychophysics","294","761964","0.0-2.0-0.97","f88","[""R""]","","","","","","1571","key","m","m","16.685799999999883","798","448.5","1","1","1","1","0","false","",""
"","psychophysics","295","762971","0.0-2.0-1.97","f88","[""R""]","","","","","","null","key","null","null","16.6862372881358","798","448.5","1","1","1","1","0","","",""
"","psychophysics","296","763981","0.0-2.0-3.97-0.97","f88","[""R""]","","","","","","null","key","null","null","16.68611666666693","798","448.5","1","1","1","1","0","","",""
"","psychophysics","297","769939","0.0-2.0-0.98","f88","[""R""]","","","","","","5254","key","m","m","16.68568258426967","798","448.5","2","1","1","0","1","true","",""
"","psychophysics","298","770943","0.0-2.0-1.98","f88","[""R""]","","","","","","null","key","null","null","16.68686440677808","798","448.5","2","1","1","0","1","","",""
"","psychophysics","299","771953","0.0-2.0-2.98-0.98","f88","[""R""]","","","","","","null","key","null","null","16.686883333333146","798","448.5","2","1","1","0","1","","",""
"","psychophysics","300","775844","0.0-2.0-0.99","f88","[""R""]","","","","","","3187","key","z","z","16.68570258620683","798","448.5","1","1","0","1","1","true","",""
"","psychophysics","301","776850","0.0-2.0-1.99","f88","[""R""]","","","","","","null","key","null","null","16.685711864405707","798","448.5","1","1","0","1","1","","",""
"","psychophysics","302","777859","0.0-2.0-2.99-0.99","f88","[""R""]","","","","","","null","key","null","null","16.685816666666263","798","448.5","1","1","0","1","1","","",""
"","html-keyboard-response","303","785628","0.0-2.0-4.99-0.99","f88","[""R""]","","","","","","7763","","","g","","","","","","","","","","<p>You have finished block 1 of 5.<p>You correctly predicted 60% of the races.<p>On the next screen, you will be given a 30 second break. Press the <b>g</b> key to start your break.",""
"","html-keyboard-response","304","786631","0.0-2.0-4.99-1.99-0.99","f88","[""R""]","","","","","","null","","","null","","","","","","","","","","<p>The experiment will resume in 30 seconds. ",""
"","html-keyboard-response","305","787635","0.0-2.0-4.99-1.99-1.99","f88","[""R""]","","","","","","null","","","null","","","","","","","","","","<p>The experiment will resume in 29 seconds. ",""
"","html-keyboard-response","306","788638","0.0-2.0-4.99-1.99-2.99","f88","[""R""]","","","","","","null","","","null","","","","","","","","","","<p>The experiment will resume in 28 seconds. ",""
"","html-keyboard-response","307","789641","0.0-2.0-4.99-1.99-3.99","f88","[""R""]","","","","","","null","","","null","","","","","","","","","","<p>The experiment will resume in 27 seconds. ",""
"","html-keyboard-response","308","790643","0.0-2.0-4.99-1.99-4.99","f88","[""R""]","","","","","","null","","","null","","","","","","","","","","<p>The experiment will resume in 26 seconds. ",""
"","html-keyboard-response","309","791645","0.0-2.0-4.99-1.99-5.99","f88","[""R""]","","","","","","null","","","null","","","","","","","","","","<p>The experiment will resume in 25 seconds. ",""
"","html-keyboard-response","310","792647","0.0-2.0-4.99-1.99-6.99","f88","[""R""]","","","","","","null","","","null","","","","","","","","","","<p>The experiment will resume in 24 seconds. ",""
"","html-keyboard-response","311","793648","0.0-2.0-4.99-1.99-7.99","f88","[""R""]","","","","","","null","","","null","","","","","","","","","","<p>The experiment will resume in 23 seconds. ",""
"","html-keyboard-response","312","794649","0.0-2.0-4.99-1.99-8.99","f88","[""R""]","","","","","","null","","","null","","","","","","","","","","<p>The experiment will resume in 22 seconds. ",""
"","html-keyboard-response","313","795651","0.0-2.0-4.99-1.99-9.99","f88","[""R""]","","","","","","null","","","null","","","","","","","","","","<p>The experiment will resume in 21 seconds. ",""
"","html-keyboard-response","314","796652","0.0-2.0-4.99-1.99-10.99","f88","[""R""]","","","","","","null","","","null","","","","","","","","","","<p>The experiment will resume in 20 seconds. ",""
"","html-keyboard-response","315","797654","0.0-2.0-4.99-1.99-11.99","f88","[""R""]","","","","","","null","","","null","","","","","","","","","","<p>The experiment will resume in 19 seconds. ",""
"","html-keyboard-response","316","798657","0.0-2.0-4.99-1.99-12.99","f88","[""R""]","","","","","","null","","","null","","","","","","","","","","<p>The experiment will resume in 18 seconds. ",""
"","html-keyboard-response","317","799658","0.0-2.0-4.99-1.99-13.99","f88","[""R""]","","","","","","null","","","null","","","","","","","","","","<p>The experiment will resume in 17 seconds. ",""
"","html-keyboard-response","318","800659","0.0-2.0-4.99-1.99-14.99","f88","[""R""]","","","","","","null","","","null","","","","","","","","","","<p>The experiment will resume in 16 seconds. ",""
"","html-keyboard-response","319","801661","0.0-2.0-4.99-1.99-15.99","f88","[""R""]","","","","","","null","","","null","","","","","","","","","","<p>The experiment will resume in 15 seconds. ",""
"","html-keyboard-response","320","802662","0.0-2.0-4.99-1.99-16.99","f88","[""R""]","","","","","","null","","","null","","","","","","","","","","<p>The experiment will resume in 14 seconds. ",""
"","html-keyboard-response","321","803664","0.0-2.0-4.99-1.99-17.99","f88","[""R""]","","","","","","null","","","null","","","","","","","","","","<p>The experiment will resume in 13 seconds. ",""
"","html-keyboard-response","322","804666","0.0-2.0-4.99-1.99-18.99","f88","[""R""]","","","","","","null","","","null","","","","","","","","","","<p>The experiment will resume in 12 seconds. ",""
"","html-keyboard-response","323","805668","0.0-2.0-4.99-1.99-19.99","f88","[""R""]","","","","","","null","","","null","","","","","","","","","","<p>The experiment will resume in 11 seconds. ",""
"","html-keyboard-response","324","806669","0.0-2.0-4.99-1.99-20.99","f88","[""R""]","","","","","","null","","","null","","","","","","","","","","<p>The experiment will resume in 10 seconds. ",""
"","html-keyboard-response","325","807671","0.0-2.0-4.99-1.99-21.99","f88","[""R""]","","","","","","null","","","null","","","","","","","","","","<p>The experiment will resume in 9 seconds. ",""
"","html-keyboard-response","326","808672","0.0-2.0-4.99-1.99-22.99","f88","[""R""]","","","","","","null","","","null","","","","","","","","","","<p>The experiment will resume in 8 seconds. ",""
"","html-keyboard-response","327","809674","0.0-2.0-4.99-1.99-23.99","f88","[""R""]","","","","","","null","","","null","","","","","","","","","","<p>The experiment will resume in 7 seconds. ",""
"","html-keyboard-response","328","810675","0.0-2.0-4.99-1.99-24.99","f88","[""R""]","","","","","","null","","","null","","","","","","","","","","<p>The experiment will resume in 6 seconds. ",""
"","html-keyboard-response","329","811678","0.0-2.0-4.99-1.99-25.99","f88","[""R""]","","","","","","null","","","null","","","","","","","","","","<p>The experiment will resume in 5 seconds. ",""
"","html-keyboard-response","330","812680","0.0-2.0-4.99-1.99-26.99","f88","[""R""]","","","","","","null","","","null","","","","","","","","","","<p>The experiment will resume in 4 seconds. ",""
"","html-keyboard-response","331","813682","0.0-2.0-4.99-1.99-27.99","f88","[""R""]","","","","","","null","","","null","","","","","","","","","","<p>The experiment will resume in 3 seconds. ",""
"","html-keyboard-response","332","814683","0.0-2.0-4.99-1.99-28.99","f88","[""R""]","","","","","","null","","","null","","","","","","","","","","<p>The experiment will resume in 2 seconds. ",""
"","html-keyboard-response","333","815685","0.0-2.0-4.99-1.99-29.99","f88","[""R""]","","","","","","null","","","null","","","","","","","","","","<p>The experiment will resume in 1 seconds. ",""
"","psychophysics","334","821580","0.0-2.0-0.100","f88","[""R""]","","","","","","5191","key","z","z","16.686906515580745","798","448.5","1","1","0","1","1","true","",""
"","psychophysics","335","822587","0.0-2.0-1.100","f88","[""R""]","","","","","","null","key","null","null","16.686355932203313","798","448.5","1","1","0","1","1","","",""
"","psychophysics","336","823595","0.0-2.0-2.100-0.100","f88","[""R""]","","","","","","null","key","null","null","16.686650000000373","798","448.5","1","1","0","1","1","","",""
"","psychophysics","337","825628","0.0-2.0-0.101","f88","[""R""]","","","","","","1328","key","z","z","16.686075000000226","798","448.5","1","1","0","1","0","true","",""
"","psychophysics","338","826635","0.0-2.0-1.101","f88","[""R""]","","","","","","null","key","null","null","16.68593333333265","798","448.5","1","1","0","1","0","","",""
"","psychophysics","339","827643","0.0-2.0-2.101-0.101","f88","[""R""]","","","","","","null","key","null","null","16.68549152542403","798","448.5","1","1","0","1","0","","",""
"","psychophysics","340","829503","0.0-2.0-0.102","f88","[""R""]","","","","","","1155","key","z","z","16.68723423423367","798","448.5","1","0","1","0","1","true","",""
"","psychophysics","341","830510","0.0-2.0-1.102","f88","[""R""]","","","","","","null","key","null","null","16.685186440677587","798","448.5","1","0","1","0","1","","",""
"","psychophysics","342","831520","0.0-2.0-2.102-0.102","f88","[""R""]","","","","","","null","key","null","null","16.68668333333335","798","448.5","1","0","1","0","1","","",""
"","psychophysics","343","834341","0.0-2.0-0.103","f88","[""R""]","","","","","","2117","key","m","m","16.686077380952717","798","448.5","2","0","0","0","1","true","",""
"","psychophysics","344","835348","0.0-2.0-1.103","f88","[""R""]","","","","","","null","key","null","null","16.68615254237301","798","448.5","2","0","0","0","1","","",""
"","psychophysics","345","836356","0.0-2.0-2.103-0.103","f88","[""R""]","","","","","","null","key","null","null","16.68688135593143","798","448.5","2","0","0","0","1","","",""
"","psychophysics","346","838155","0.0-2.0-0.104","f88","[""R""]","","","","","","1095","key","m","m","16.68524299065417","798","448.5","1","0","1","1","0","false","",""
"","psychophysics","347","839163","0.0-2.0-1.104","f88","[""R""]","","","","","","null","key","null","null","16.688433333333037","798","448.5","1","0","1","1","0","","",""
"","psychophysics","348","840171","0.0-2.0-3.104-0.104","f88","[""R""]","","","","","","null","key","null","null","16.685983050847426","798","448.5","1","0","1","1","0","","",""
"","psychophysics","349","842907","0.0-2.0-0.105","f88","[""R""]","","","","","","2033","key","m","m","16.68592024539909","798","448.5","2","0","1","1","1","true","",""
"","psychophysics","350","843915","0.0-2.0-1.105","f88","[""R""]","","","","","","null","key","null","null","16.686033898305496","798","448.5","2","0","1","1","1","","",""
"","psychophysics","351","844923","0.0-2.0-2.105-0.105","f88","[""R""]","","","","","","null","key","null","null","16.68603333333352","798","448.5","2","0","1","1","1","","",""
"","psychophysics","352","847716","0.0-2.0-0.106","f88","[""R""]","","","","","","2089","key","z","z","16.685945783133047","798","448.5","2","0","0","0","1","false","",""
"","psychophysics","353","848724","0.0-2.0-1.106","f88","[""R""]","","","","","","null","key","null","null","16.686599999999938","798","448.5","2","0","0","0","1","","",""
"","psychophysics","354","849734","0.0-2.0-3.106-0.106","f88","[""R""]","","","","","","null","key","null","null","16.68610169491691","798","448.5","2","0","0","0","1","","",""
"","psychophysics","355","852011","0.0-2.0-0.107","f88","[""R""]","","","","","","1574","key","z","z","16.68627941176494","798","448.5","2","1","0","0","1","false","",""
"","psychophysics","356","853019","0.0-2.0-1.107","f88","[""R""]","","","","","","null","key","null","null","16.68684745762671","798","448.5","2","1","0","0","1","","",""
"","psychophysics","357","854030","0.0-2.0-3.107-0.107","f88","[""R""]","","","","","","null","key","null","null","16.685899999999673","798","448.5","2","1","0","0","1","","",""
"","psychophysics","358","858355","0.0-2.0-0.108","f88","[""R""]","","","","","","3622","key","z","z","16.685503875968937","798","448.5","1","1","1","1","1","true","",""
"","psychophysics","359","859362","0.0-2.0-1.108","f88","[""R""]","","","","","","null","key","null","null","16.685864406779913","798","448.5","1","1","1","1","1","","",""
"","psychophysics","360","860370","0.0-2.0-2.108-0.108","f88","[""R""]","","","","","","null","key","null","null","16.686733333331844","798","448.5","1","1","1","1","1","","",""
"","psychophysics","361","862811","0.0-2.0-0.109","f88","[""R""]","","","","","","1736","key","z","z","16.68624827586243","798","448.5","1","0","1","1","1","true","",""
"","psychophysics","362","863818","0.0-2.0-1.109","f88","[""R""]","","","","","","null","key","null","null","16.685135593219517","798","448.5","1","0","1","1","1","","",""
"","psychophysics","363","864827","0.0-2.0-2.109-0.109","f88","[""R""]","","","","","","null","key","null","null","16.68683333333271","798","448.5","1","0","1","1","1","","",""
"","psychophysics","364","870172","0.0-2.0-0.110","f88","[""R""]","","","","","","4641","key","m","m","16.685673981191165","798","448.5","2","0","0","1","1","true","",""
"","psychophysics","365","871179","0.0-2.0-1.110","f88","[""R""]","","","","","","null","key","null","null","16.68640677966138","798","448.5","2","0","0","1","1","","",""
"","psychophysics","366","872188","0.0-2.0-2.110-0.110","f88","[""R""]","","","","","","null","key","null","null","16.68695000000104","798","448.5","2","0","0","1","1","","",""
"","psychophysics","367","874471","0.0-2.0-0.111","f88","[""R""]","","","","","","1578","key","z","z","16.686014705882","798","448.5","1","1","0","1","1","true","",""
"","psychophysics","368","875478","0.0-2.0-1.111","f88","[""R""]","","","","","","null","key","null","null","16.686423728812755","798","448.5","1","1","0","1","1","","",""
"","psychophysics","369","876489","0.0-2.0-2.111-0.111","f88","[""R""]","","","","","","null","key","null","null","16.686883333333146","798","448.5","1","1","0","1","1","","",""
"","psychophysics","370","878700","0.0-2.0-0.112","f88","[""R""]","","","","","","1505","key","m","m","16.686076335877335","798","448.5","2","0","0","1","1","true","",""
"","psychophysics","371","879706","0.0-2.0-1.112","f88","[""R""]","","","","","","null","key","null","null","16.687135593219804","798","448.5","2","0","0","1","1","","",""
"","psychophysics","372","880714","0.0-2.0-2.112-0.112","f88","[""R""]","","","","","","null","key","null","null","16.68603333333352","798","448.5","2","0","0","1","1","","",""
"","psychophysics","373","883140","0.0-2.0-0.113","f88","[""R""]","","","","","","1721","key","z","z","16.68589583333394","798","448.5","1","1","1","1","1","true","",""
"","psychophysics","374","884148","0.0-2.0-1.113","f88","[""R""]","","","","","","null","key","null","null","16.687366666666154","798","448.5","1","1","1","1","1","","",""
"","psychophysics","375","885157","0.0-2.0-2.113-0.113","f88","[""R""]","","","","","","null","key","null","null","16.685644067798236","798","448.5","1","1","1","1","1","","",""
"","psychophysics","376","887452","0.0-2.0-0.114","f88","[""R""]","","","","","","1592","key","m","m","16.68585401459811","798","448.5","2","0","1","1","1","true","",""
"","psychophysics","377","888460","0.0-2.0-1.114","f88","[""R""]","","","","","","null","key","null","null","16.68500000000063","798","448.5","2","0","1","1","1","","",""
"","psychophysics","378","889471","0.0-2.0-2.114-0.114","f88","[""R""]","","","","","","null","key","null","null","16.686166666667365","798","448.5","2","0","1","1","1","","",""
"","psychophysics","379","892044","0.0-2.0-0.115","f88","[""R""]","","","","","","1869","key","z","z","16.685601307189525","798","448.5","1","1","1","1","1","true","",""
"","psychophysics","380","893050","0.0-2.0-1.115","f88","[""R""]","","","","","","null","key","null","null","16.686338983049964","798","448.5","1","1","1","1","1","","",""
"","psychophysics","381","894059","0.0-2.0-2.115-0.115","f88","[""R""]","","","","","","null","key","null","null","16.686549999999503","798","448.5","1","1","1","1","1","","",""
"","psychophysics","382","897116","0.0-2.0-0.116","f88","[""R""]","","","","","","2351","key","m","m","16.685862637362902","798","448.5","2","0","1","1","1","true","",""
"","psychophysics","383","898123","0.0-2.0-1.116","f88","[""R""]","","","","","","null","key","null","null","16.68618644067773","798","448.5","2","0","1","1","1","","",""
"","psychophysics","384","899132","0.0-2.0-2.116-0.116","f88","[""R""]","","","","","","null","key","null","null","16.686250000000776","798","448.5","2","0","1","1","1","","",""
"","psychophysics","385","903163","0.0-2.0-0.117","f88","[""R""]","","","","","","3328","key","m","m","16.685649999999928","798","448.5","2","0","0","1","0","true","",""
"","psychophysics","386","904172","0.0-2.0-1.117","f88","[""R""]","","","","","","null","key","null","null","16.68564999999944","798","448.5","2","0","0","1","0","","",""
"","psychophysics","387","905180","0.0-2.0-2.117-0.117","f88","[""R""]","","","","","","null","key","null","null","16.685813559321844","798","448.5","2","0","0","1","0","","",""
"","psychophysics","388","907559","0.0-2.0-0.118","f88","[""R""]","","","","","","1674","key","m","m","16.685838028168778","798","448.5","1","1","0","0","0","false","",""
"","psychophysics","389","908566","0.0-2.0-1.118","f88","[""R""]","","","","","","null","key","null","null","16.686355932203313","798","448.5","1","1","0","0","0","","",""
"","psychophysics","390","909577","0.0-2.0-3.118-0.118","f88","[""R""]","","","","","","null","key","null","null","16.686166666667365","798","448.5","1","1","0","0","0","","",""
"","psychophysics","391","911835","0.0-2.0-0.119","f88","[""R""]","","","","","","1554","key","z","z","16.685798507462664","798","448.5","1","1","1","1","1","true","",""
"","psychophysics","392","912843","0.0-2.0-1.119","f88","[""R""]","","","","","","null","key","null","null","16.68589830508661","798","448.5","1","1","1","1","1","","",""
"","psychophysics","393","913851","0.0-2.0-2.119-0.119","f88","[""R""]","","","","","","null","key","null","null","16.688566666664943","798","448.5","1","1","1","1","1","","",""
"","psychophysics","394","917403","0.0-2.0-0.120","f88","[""R""]","","","","","","2848","key","z","z","16.685830188679557","798","448.5","2","1","1","0","0","false","",""
"","psychophysics","395","918411","0.0-2.0-1.120","f88","[""R""]","","","","","","null","key","null","null","16.685932203389356","798","448.5","2","1","1","0","0","","",""
"","psychophysics","396","919422","0.0-2.0-3.120-0.120","f88","[""R""]","","","","","","null","key","null","null","16.686233333333316","798","448.5","2","1","1","0","0","","",""
"","psychophysics","397","929283","0.0-2.0-0.121","f88","[""R""]","","","","","","9158","key","z","z","16.68578983050854","798","448.5","1","1","0","1","0","true","",""
"","psychophysics","398","930291","0.0-2.0-1.121","f88","[""R""]","","","","","","null","key","null","null","16.685457627119305","798","448.5","1","1","0","1","0","","",""
"","psychophysics","399","931301","0.0-2.0-2.121-0.121","f88","[""R""]","","","","","","null","key","null","null","16.68683333333271","798","448.5","1","1","0","1","0","","",""
"","psychophysics","400","948171","0.0-2.0-0.122","f88","[""R""]","","","","","","16165","key","m","m","16.68584653465354","798","448.5","2","1","0","1","0","true","",""
"","psychophysics","401","949179","0.0-2.0-1.122","f88","[""R""]","","","","","","null","key","null","null","16.685762711863774","798","448.5","2","1","0","1","0","","",""
"","psychophysics","402","950190","0.0-2.0-2.122-0.122","f88","[""R""]","","","","","","null","key","null","null","16.686916666668065","798","448.5","2","1","0","1","0","","",""
"","psychophysics","403","952754","0.0-2.0-0.123","f88","[""R""]","","","","","","1860","key","z","z","16.685802631578746","798","448.5","1","0","0","1","1","true","",""
"","psychophysics","404","953761","0.0-2.0-1.123","f88","[""R""]","","","","","","null","key","null","null","16.68628333333375","798","448.5","1","0","0","1","1","","",""
"","psychophysics","405","954770","0.0-2.0-2.123-0.123","f88","[""R""]","","","","","","null","key","null","null","16.685457627119305","798","448.5","1","0","0","1","1","","",""
"","psychophysics","406","957290","0.0-2.0-0.124","f88","[""R""]","","","","","","1817","key","m","m","16.686193333333357","798","448.5","2","1","0","1","0","true","",""
"","psychophysics","407","958299","0.0-2.0-1.124","f88","[""R""]","","","","","","null","key","null","null","16.686799999999735","798","448.5","2","1","0","1","0","","",""
"","psychophysics","408","959307","0.0-2.0-2.124-0.124","f88","[""R""]","","","","","","null","key","null","null","16.68489830508449","798","448.5","2","1","0","1","0","","",""
"","psychophysics","409","961827","0.0-2.0-0.125","f88","[""R""]","","","","","","1816","key","z","z","16.686153333333788","798","448.5","2","1","1","0","0","false","",""
"","psychophysics","410","962834","0.0-2.0-1.125","f88","[""R""]","","","","","","null","key","null","null","16.687050847457012","798","448.5","2","1","1","0","0","","",""
"","psychophysics","411","963843","0.0-2.0-3.125-0.125","f88","[""R""]","","","","","","null","key","null","null","16.686183333332885","798","448.5","2","1","1","0","0","","",""
"","psychophysics","412","968395","0.0-2.0-0.126","f88","[""R""]","","","","","","3847","key","m","m","16.685591911764384","798","448.5","2","0","1","0","1","true","",""
"","psychophysics","413","969401","0.0-2.0-1.126","f88","[""R""]","","","","","","null","key","null","null","16.68540677966124","798","448.5","2","0","1","0","1","","",""
"","psychophysics","414","970410","0.0-2.0-2.126-0.126","f88","[""R""]","","","","","","null","key","null","null","16.68657627118696","798","448.5","2","0","1","0","1","","",""
"","psychophysics","415","982278","0.0-2.0-0.127","f88","[""R""]","","","","","","11164","key","z","z","16.68587341772146","798","448.5","1","1","0","1","1","true","",""
"","psychophysics","416","983285","0.0-2.0-1.127","f88","[""R""]","","","","","","null","key","null","null","16.686372881354686","798","448.5","1","1","0","1","1","","",""
"","psychophysics","417","984295","0.0-2.0-2.127-0.127","f88","[""R""]","","","","","","null","key","null","null","16.68668333333335","798","448.5","1","1","0","1","1","","",""
"","psychophysics","418","988387","0.0-2.0-0.128","f88","[""R""]","","","","","","3386","key","z","z","16.685844262295163","798","448.5","2","0","1","0","0","false","",""
"","psychophysics","419","989394","0.0-2.0-1.128","f88","[""R""]","","","","","","null","key","null","null","16.686000000000774","798","448.5","2","0","1","0","0","","",""
"","psychophysics","420","990412","0.0-2.0-3.128-0.128","f88","[""R""]","","","","","","null","key","null","null","16.686983333334016","798","448.5","2","0","1","0","0","","",""
"","psychophysics","421","994131","0.0-2.0-0.129","f88","[""R""]","","","","","","3015","key","z","z","16.686292792792614","798","448.5","1","0","1","0","1","true","",""
"","psychophysics","422","995138","0.0-2.0-1.129","f88","[""R""]","","","","","","null","key","null","null","16.687203389829246","798","448.5","1","0","1","0","1","","",""
"","psychophysics","423","996146","0.0-2.0-2.129-0.129","f88","[""R""]","","","","","","null","key","null","null","16.68465000000045","798","448.5","1","0","1","0","1","","",""
"","psychophysics","424","998251","0.0-2.0-0.130","f88","[""R""]","","","","","","1401","key","z","z","16.686040000000038","798","448.5","1","0","0","1","1","true","",""
"","psychophysics","425","999258","0.0-2.0-1.130","f88","[""R""]","","","","","","null","key","null","null","16.68613559321966","798","448.5","1","0","0","1","1","","",""
"","psychophysics","426","1000267","0.0-2.0-2.130-0.130","f88","[""R""]","","","","","","null","key","null","null","16.686533333332044","798","448.5","1","0","0","1","1","","",""
"","psychophysics","427","1002435","0.0-2.0-0.131","f88","[""R""]","","","","","","1464","key","m","m","16.685674418604123","798","448.5","2","1","0","1","1","true","",""
"","psychophysics","428","1003442","0.0-2.0-1.131","f88","[""R""]","","","","","","null","key","null","null","16.685372881356518","798","448.5","2","1","0","1","1","","",""
"","psychophysics","429","1004453","0.0-2.0-2.131-0.131","f88","[""R""]","","","","","","null","key","null","null","16.687183333333813","798","448.5","2","1","0","1","1","","",""
"","psychophysics","430","1012619","0.0-2.0-0.132","f88","[""R""]","","","","","","7461","key","m","m","16.68582581967229","798","448.5","2","0","1","0","1","true","",""
"","psychophysics","431","1013626","0.0-2.0-1.132","f88","[""R""]","","","","","","null","key","null","null","16.686999999998942","798","448.5","2","0","1","0","1","","",""
"","psychophysics","432","1014635","0.0-2.0-2.132-0.132","f88","[""R""]","","","","","","null","key","null","null","16.686900000000605","798","448.5","2","0","1","0","1","","",""
"","psychophysics","433","1017268","0.0-2.0-0.133","f88","[""R""]","","","","","","1929","key","z","z","16.68587898089147","798","448.5","2","0","1","0","0","false","",""
"","psychophysics","434","1018275","0.0-2.0-1.133","f88","[""R""]","","","","","","null","key","null","null","16.68650847457752","798","448.5","2","0","1","0","0","","",""
"","psychophysics","435","1019283","0.0-2.0-3.133-0.133","f88","[""R""]","","","","","","null","key","null","null","16.68655932203559","798","448.5","2","0","1","0","0","","",""
"","psychophysics","436","1024531","0.0-2.0-0.134","f88","[""R""]","","","","","","4543","key","m","m","16.685904458598944","798","448.5","1","0","0","1","0","false","",""
"","psychophysics","437","1025538","0.0-2.0-1.134","f88","[""R""]","","","","","","null","key","null","null","16.685915254236008","798","448.5","1","0","0","1","0","","",""
"","psychophysics","438","1026548","0.0-2.0-3.134-0.134","f88","[""R""]","","","","","","null","key","null","null","16.685316666667738","798","448.5","1","0","0","1","0","","",""
"","psychophysics","439","1028387","0.0-2.0-0.135","f88","[""R""]","","","","","","1136","key","z","z","16.68568807339441","798","448.5","1","1","0","0","0","true","",""
"","psychophysics","440","1029394","0.0-2.0-1.135","f88","[""R""]","","","","","","null","key","null","null","16.686694915254474","798","448.5","1","1","0","0","0","","",""
"","psychophysics","441","1030403","0.0-2.0-2.135-0.135","f88","[""R""]","","","","","","null","key","null","null","16.681466666667255","798","448.5","1","1","0","0","0","","",""
"","psychophysics","442","1031971","0.0-2.0-0.136","f88","[""R""]","","","","","","865","key","m","m","16.685709677418814","798","448.5","2","0","1","0","1","true","",""
"","psychophysics","443","1032979","0.0-2.0-1.136","f88","[""R""]","","","","","","null","key","null","null","16.68544067796596","798","448.5","2","0","1","0","1","","",""
"","psychophysics","444","1033987","0.0-2.0-2.136-0.136","f88","[""R""]","","","","","","null","key","null","null","16.686333333332247","798","448.5","2","0","1","0","1","","",""
"","psychophysics","445","1035395","0.0-2.0-0.137","f88","[""R""]","","","","","","705","key","m","m","16.685457831325785","798","448.5","2","0","1","0","1","true","",""
"","psychophysics","446","1036403","0.0-2.0-1.137","f88","[""R""]","","","","","","null","key","null","null","16.68610169491494","798","448.5","2","0","1","0","1","","",""
"","psychophysics","447","1037410","0.0-2.0-2.137-0.137","f88","[""R""]","","","","","","null","key","null","null","16.685533333333055","798","448.5","2","0","1","0","1","","",""
"","psychophysics","448","1039395","0.0-2.0-0.138","f88","[""R""]","","","","","","1280","key","m","m","16.68569491525433","798","448.5","2","1","0","1","0","true","",""
"","psychophysics","449","1040402","0.0-2.0-1.138","f88","[""R""]","","","","","","null","key","null","null","16.68767796610127","798","448.5","2","1","0","1","0","","",""
"","psychophysics","450","1041412","0.0-2.0-2.138-0.138","f88","[""R""]","","","","","","null","key","null","null","16.6869499999991","798","448.5","2","1","0","1","0","","",""
"","psychophysics","451","1043211","0.0-2.0-0.139","f88","[""R""]","","","","","","1095","key","z","z","16.686292452829942","798","448.5","1","0","1","0","1","true","",""
"","psychophysics","452","1044219","0.0-2.0-1.139","f88","[""R""]","","","","","","null","key","null","null","16.686900000000605","798","448.5","1","0","1","0","1","","",""
"","psychophysics","453","1045226","0.0-2.0-2.139-0.139","f88","[""R""]","","","","","","null","key","null","null","16.686677966101126","798","448.5","1","0","1","0","1","","",""
"","psychophysics","454","1047154","0.0-2.0-0.140","f88","[""R""]","","","","","","1224","key","z","z","16.686547826086777","798","448.5","2","1","1","1","0","false","",""
"","psychophysics","455","1048161","0.0-2.0-1.140","f88","[""R""]","","","","","","null","key","null","null","16.685847457626565","798","448.5","2","1","1","1","0","","",""
"","psychophysics","456","1049170","0.0-2.0-3.140-0.140","f88","[""R""]","","","","","","null","key","null","null","16.68666666666783","798","448.5","2","1","1","1","0","","",""
"","psychophysics","457","1050956","0.0-2.0-0.141","f88","[""R""]","","","","","","1082","key","z","z","16.685688679244915","798","448.5","2","0","0","1","1","false","",""
"","psychophysics","458","1051963","0.0-2.0-1.141","f88","[""R""]","","","","","","null","key","null","null","16.686338983049964","798","448.5","2","0","0","1","1","","",""
"","psychophysics","459","1052971","0.0-2.0-3.141-0.141","f88","[""R""]","","","","","","null","key","null","null","16.68622033898245","798","448.5","2","0","0","1","1","","",""
"","psychophysics","460","1055986","0.0-2.0-0.142","f88","[""R""]","","","","","","2310","key","m","m","16.685616666667112","798","448.5","1","0","0","0","1","false","",""
"","psychophysics","461","1056995","0.0-2.0-1.142","f88","[""R""]","","","","","","null","key","null","null","16.686499999999068","798","448.5","1","0","0","0","1","","",""
"","psychophysics","462","1058004","0.0-2.0-3.142-0.142","f88","[""R""]","","","","","","null","key","null","null","16.68483050847505","798","448.5","1","0","0","0","1","","",""
"","psychophysics","463","1061146","0.0-2.0-0.143","f88","[""R""]","","","","","","2439","key","z","z","16.68614973262062","798","448.5","1","1","0","1","1","true","",""
"","psychophysics","464","1062153","0.0-2.0-1.143","f88","[""R""]","","","","","","null","key","null","null","16.68638333333268","798","448.5","1","1","0","1","1","","",""
"","psychophysics","465","1063161","0.0-2.0-2.143-0.143","f88","[""R""]","","","","","","null","key","null","null","16.68738983051015","798","448.5","1","1","0","1","1","","",""
"","psychophysics","466","1065042","0.0-2.0-0.144","f88","[""R""]","","","","","","1176","key","m","m","16.686401785715134","798","448.5","2","0","1","0","1","true","",""
"","psychophysics","467","1066049","0.0-2.0-1.144","f88","[""R""]","","","","","","null","key","null","null","16.68616949152438","798","448.5","2","0","1","0","1","","",""
"","psychophysics","468","1067058","0.0-2.0-2.144-0.144","f88","[""R""]","","","","","","null","key","null","null","16.687633333335786","798","448.5","2","0","1","0","1","","",""
"","psychophysics","469","1072786","0.0-2.0-0.145","f88","[""R""]","","","","","","5024","key","z","z","16.6857631578953","798","448.5","2","0","0","0","0","false","",""
"","psychophysics","470","1073793","0.0-2.0-1.145","f88","[""R""]","","","","","","null","key","null","null","16.686779661017265","798","448.5","2","0","0","0","0","","",""
"","psychophysics","471","1074802","0.0-2.0-3.145-0.145","f88","[""R""]","","","","","","null","key","null","null","16.688450000000497","798","448.5","2","0","0","0","0","","",""
"","psychophysics","472","1076819","0.0-2.0-0.146","f88","[""R""]","","","","","","1313","key","z","z","16.68558333333349","798","448.5","1","0","1","1","1","true","",""
"","psychophysics","473","1077827","0.0-2.0-1.146","f88","[""R""]","","","","","","null","key","null","null","16.686118644066312","798","448.5","1","0","1","1","1","","",""
"","psychophysics","474","1078837","0.0-2.0-2.146-0.146","f88","[""R""]","","","","","","null","key","null","null","16.686716666670204","798","448.5","1","0","1","1","1","","",""
"","psychophysics","475","1081146","0.0-2.0-0.147","f88","[""R""]","","","","","","1604","key","m","m","16.68559124087575","798","448.5","1","0","0","1","0","false","",""
"","psychophysics","476","1082153","0.0-2.0-1.147","f88","[""R""]","","","","","","null","key","null","null","16.686338983049964","798","448.5","1","0","0","1","0","","",""
"","psychophysics","477","1083162","0.0-2.0-3.147-0.147","f88","[""R""]","","","","","","null","key","null","null","16.686083333333954","798","448.5","1","0","0","1","0","","",""
"","psychophysics","478","1084906","0.0-2.0-0.148","f88","[""R""]","","","","","","1040","key","m","m","16.685961165049484","798","448.5","1","1","0","0","1","false","",""
"","psychophysics","479","1085913","0.0-2.0-1.148","f88","[""R""]","","","","","","null","key","null","null","16.68638333333656","798","448.5","1","1","0","0","1","","",""
"","psychophysics","480","1086921","0.0-2.0-3.148-0.148","f88","[""R""]","","","","","","null","key","null","null","16.685796610166523","798","448.5","1","1","0","0","1","","",""
"","psychophysics","481","1088890","0.0-2.0-0.149","f88","[""R""]","","","","","","1264","key","z","z","16.687111111111047","798","448.5","1","0","0","1","1","true","",""
"","psychophysics","482","1089897","0.0-2.0-1.149","f88","[""R""]","","","","","","null","key","null","null","16.68649152542417","798","448.5","1","0","0","1","1","","",""
"","psychophysics","483","1090905","0.0-2.0-2.149-0.149","f88","[""R""]","","","","","","null","key","null","null","16.685733333330912","798","448.5","1","0","0","1","1","","",""
"","psychophysics","484","1093098","0.0-2.0-0.150","f88","[""R""]","","","","","","1489","key","m","m","16.685976923078012","798","448.5","1","0","0","1","1","false","",""
"","psychophysics","485","1094105","0.0-2.0-1.150","f88","[""R""]","","","","","","null","key","null","null","16.687133333331438","798","448.5","1","0","0","1","1","","",""
"","psychophysics","486","1095113","0.0-2.0-3.150-0.150","f88","[""R""]","","","","","","null","key","null","null","16.685932203389356","798","448.5","1","0","0","1","1","","",""
"","psychophysics","487","1097722","0.0-2.0-0.151","f88","[""R""]","","","","","","1904","key","m","m","16.68623225806401","798","448.5","1","1","1","1","0","false","",""
"","psychophysics","488","1098731","0.0-2.0-1.151","f88","[""R""]","","","","","","null","key","null","null","16.687166666666357","798","448.5","1","1","1","1","0","","",""
"","psychophysics","489","1099739","0.0-2.0-3.151-0.151","f88","[""R""]","","","","","","null","key","null","null","16.68701694915229","798","448.5","1","1","1","1","0","","",""
"","psychophysics","490","1102106","0.0-2.0-0.152","f88","[""R""]","","","","","","1664","key","m","m","16.68597163120615","798","448.5","1","0","0","0","0","false","",""
"","psychophysics","491","1103115","0.0-2.0-1.152","f88","[""R""]","","","","","","null","key","null","null","16.687283333332743","798","448.5","1","0","0","0","0","","",""
"","psychophysics","492","1104124","0.0-2.0-3.152-0.152","f88","[""R""]","","","","","","null","key","null","null","16.686338983049964","798","448.5","1","0","0","0","0","","",""
"","psychophysics","493","1107235","0.0-2.0-0.153","f88","[""R""]","","","","","","2406","key","m","m","16.686194594594575","798","448.5","1","0","0","0","1","false","",""
"","psychophysics","494","1108243","0.0-2.0-1.153","f88","[""R""]","","","","","","null","key","null","null","16.68668333333141","798","448.5","1","0","0","0","1","","",""
"","psychophysics","495","1109251","0.0-2.0-3.153-0.153","f88","[""R""]","","","","","","null","key","null","null","16.686067796608242","798","448.5","1","0","0","0","1","","",""
"","psychophysics","496","1110926","0.0-2.0-0.154","f88","[""R""]","","","","","","968","key","z","z","16.68655000000028","798","448.5","1","1","1","1","1","true","",""
"","psychophysics","497","1111933","0.0-2.0-1.154","f88","[""R""]","","","","","","null","key","null","null","16.685440677967932","798","448.5","1","1","1","1","1","","",""
"","psychophysics","498","1112944","0.0-2.0-2.154-0.154","f88","[""R""]","","","","","","null","key","null","null","16.686816666663315","798","448.5","1","1","1","1","1","","",""
"","psychophysics","499","1115722","0.0-2.0-0.155","f88","[""R""]","","","","","","2074","key","z","z","16.685915151515015","798","448.5","2","1","0","1","1","false","",""
"","psychophysics","500","1116732","0.0-2.0-1.155","f88","[""R""]","","","","","","null","key","null","null","16.68658333333442","798","448.5","2","1","0","1","1","","",""
"","psychophysics","501","1117740","0.0-2.0-3.155-0.155","f88","[""R""]","","","","","","null","key","null","null","16.686186440679702","798","448.5","2","1","0","1","1","","",""
"","psychophysics","502","1119386","0.0-2.0-0.156","f88","[""R""]","","","","","","943","key","m","m","16.685989795917912","798","448.5","2","1","0","1","0","true","",""
"","psychophysics","503","1120394","0.0-2.0-1.156","f88","[""R""]","","","","","","null","key","null","null","16.686559322033613","798","448.5","2","1","0","1","0","","",""
"","psychophysics","504","1121404","0.0-2.0-2.156-0.156","f88","[""R""]","","","","","","null","key","null","null","16.686649999996494","798","448.5","2","1","0","1","0","","",""
"","psychophysics","505","1123363","0.0-2.0-0.157","f88","[""R""]","","","","","","1255","key","m","m","16.68620689655052","798","448.5","2","0","1","1","1","true","",""
"","psychophysics","506","1124371","0.0-2.0-1.157","f88","[""R""]","","","","","","null","key","null","null","16.686694915252502","798","448.5","2","0","1","1","1","","",""
"","psychophysics","507","1125380","0.0-2.0-2.157-0.157","f88","[""R""]","","","","","","null","key","null","null","16.686333333332247","798","448.5","2","0","1","1","1","","",""
"","psychophysics","508","1128579","0.0-2.0-0.158","f88","[""R""]","","","","","","2495","key","m","m","16.685727748690727","798","448.5","2","0","0","1","1","true","",""
"","psychophysics","509","1129587","0.0-2.0-1.158","f88","[""R""]","","","","","","null","key","null","null","16.68528813558978","798","448.5","2","0","0","1","1","","",""
"","psychophysics","510","1130598","0.0-2.0-2.158-0.158","f88","[""R""]","","","","","","null","key","null","null","16.687099999996523","798","448.5","2","0","0","1","1","","",""
"","psychophysics","511","1132362","0.0-2.0-0.159","f88","[""R""]","","","","","","1060","key","m","m","16.685528846155368","798","448.5","2","1","0","1","1","true","",""
"","psychophysics","512","1133371","0.0-2.0-1.159","f88","[""R""]","","","","","","null","key","null","null","16.686733333331844","798","448.5","2","1","0","1","1","","",""
"","psychophysics","513","1134379","0.0-2.0-2.159-0.159","f88","[""R""]","","","","","","null","key","null","null","16.685932203389356","798","448.5","2","1","0","1","1","","",""
"","psychophysics","514","1136395","0.0-2.0-0.160","f88","[""R""]","","","","","","1312","key","m","m","16.686541666666745","798","448.5","2","0","1","0","1","true","",""
"","psychophysics","515","1137402","0.0-2.0-1.160","f88","[""R""]","","","","","","null","key","null","null","16.68762711864517","798","448.5","2","0","1","0","1","","",""
"","psychophysics","516","1138410","0.0-2.0-2.160-0.160","f88","[""R""]","","","","","","null","key","null","null","16.686149999999905","798","448.5","2","0","1","0","1","","",""
"","psychophysics","517","1141661","0.0-2.0-0.161","f88","[""R""]","","","","","","2547","key","m","m","16.685881443298904","798","448.5","2","1","0","1","1","true","",""
"","psychophysics","518","1142668","0.0-2.0-1.161","f88","[""R""]","","","","","","null","key","null","null","16.685542372880125","798","448.5","2","1","0","1","1","","",""
"","psychophysics","519","1143679","0.0-2.0-2.161-0.161","f88","[""R""]","","","","","","null","key","null","null","16.68676666666676","798","448.5","2","1","0","1","1","","",""
"","psychophysics","520","1145549","0.0-2.0-0.162","f88","[""R""]","","","","","","1166","key","z","z","16.68629729729733","798","448.5","1","1","1","1","1","true","",""
"","psychophysics","521","1146558","0.0-2.0-1.162","f88","[""R""]","","","","","","null","key","null","null","16.685983050847426","798","448.5","1","1","1","1","1","","",""
"","psychophysics","522","1147567","0.0-2.0-2.162-0.162","f88","[""R""]","","","","","","null","key","null","null","16.687350000002578","798","448.5","1","1","1","1","1","","",""
"","psychophysics","523","1150155","0.0-2.0-0.163","f88","[""R""]","","","","","","1883","key","z","z","16.685720779219423","798","448.5","1","1","0","1","0","true","",""
"","psychophysics","524","1151161","0.0-2.0-1.163","f88","[""R""]","","","","","","null","key","null","null","16.686423728814727","798","448.5","1","1","0","1","0","","",""
"","psychophysics","525","1152172","0.0-2.0-2.163-0.163","f88","[""R""]","","","","","","null","key","null","null","16.68693333333358","798","448.5","1","1","0","1","0","","",""
"","psychophysics","526","1155522","0.0-2.0-0.164","f88","[""R""]","","","","","","2646","key","m","m","16.685914572864192","798","448.5","1","0","0","0","1","false","",""
"","psychophysics","527","1156530","0.0-2.0-1.164","f88","[""R""]","","","","","","null","key","null","null","16.686350000001646","798","448.5","1","0","0","0","1","","",""
"","psychophysics","528","1157538","0.0-2.0-3.164-0.164","f88","[""R""]","","","","","","null","key","null","null","16.685915254237983","798","448.5","1","0","0","0","1","","",""
"","psychophysics","529","1160533","0.0-2.0-0.165","f88","[""R""]","","","","","","2291","key","m","m","16.68631284916123","798","448.5","1","0","0","1","0","false","",""
"","psychophysics","530","1161540","0.0-2.0-1.165","f88","[""R""]","","","","","","null","key","null","null","16.684847457626425","798","448.5","1","0","0","1","0","","",""
"","psychophysics","531","1162551","0.0-2.0-3.165-0.165","f88","[""R""]","","","","","","null","key","null","null","16.686883333333146","798","448.5","1","0","0","1","0","","",""
"","psychophysics","532","1165705","0.0-2.0-0.166","f88","[""R""]","","","","","","2451","key","m","m","16.68578191489313","798","448.5","2","1","0","1","1","true","",""
"","psychophysics","533","1166713","0.0-2.0-1.166","f88","[""R""]","","","","","","null","key","null","null","16.68381355932156","798","448.5","2","1","0","1","1","","",""
"","psychophysics","534","1167723","0.0-2.0-2.166-0.166","f88","[""R""]","","","","","","null","key","null","null","16.6869666666685","798","448.5","2","1","0","1","1","","",""
"","psychophysics","535","1174962","0.0-2.0-0.167","f88","[""R""]","","","","","","6535","key","z","z","16.685900462962714","798","448.5","1","0","0","1","0","true","",""
"","psychophysics","536","1175969","0.0-2.0-1.167","f88","[""R""]","","","","","","null","key","null","null","16.686500000002948","798","448.5","1","0","0","1","0","","",""
"","psychophysics","537","1176978","0.0-2.0-2.167-0.167","f88","[""R""]","","","","","","null","key","null","null","16.687661016951868","798","448.5","1","0","0","1","0","","",""
"","psychophysics","538","1178793","0.0-2.0-0.168","f88","[""R""]","","","","","","1109","key","m","m","16.686629629629252","798","448.5","2","0","1","1","1","true","",""
"","psychophysics","539","1179804","0.0-2.0-1.168","f88","[""R""]","","","","","","null","key","null","null","16.686516666664588","798","448.5","2","0","1","1","1","","",""
"","psychophysics","540","1180811","0.0-2.0-2.168-0.168","f88","[""R""]","","","","","","null","key","null","null","16.684593220340023","798","448.5","2","0","1","1","1","","",""
"","psychophysics","541","1182458","0.0-2.0-0.169","f88","[""R""]","","","","","","943","key","z","z","16.68644897959062","798","448.5","1","0","0","1","1","true","",""
"","psychophysics","542","1183466","0.0-2.0-1.169","f88","[""R""]","","","","","","null","key","null","null","16.68569491525433","798","448.5","1","0","0","1","1","","",""
"","psychophysics","543","1184476","0.0-2.0-2.169-0.169","f88","[""R""]","","","","","","null","key","null","null","16.6869666666685","798","448.5","1","0","0","1","1","","",""
"","psychophysics","544","1186938","0.0-2.0-0.170","f88","[""R""]","","","","","","1758","key","m","m","16.68565753424757","798","448.5","2","0","1","1","1","true","",""
"","psychophysics","545","1187946","0.0-2.0-1.170","f88","[""R""]","","","","","","null","key","null","null","16.68685000000211","798","448.5","2","0","1","1","1","","",""
"","psychophysics","546","1188955","0.0-2.0-2.170-0.170","f88","[""R""]","","","","","","null","key","null","null","16.687152542371177","798","448.5","2","0","1","1","1","","",""
"","psychophysics","547","1190873","0.0-2.0-0.171","f88","[""R""]","","","","","","1215","key","m","m","16.686587719297805","798","448.5","1","1","0","0","0","false","",""
"","psychophysics","548","1191881","0.0-2.0-1.171","f88","[""R""]","","","","","","null","key","null","null","16.687305084745383","798","448.5","1","1","0","0","0","","",""
"","psychophysics","549","1192894","0.0-2.0-3.171-0.171","f88","[""R""]","","","","","","null","key","null","null","16.685066666663623","798","448.5","1","1","0","0","0","","",""
"","psychophysics","550","1194577","0.0-2.0-0.172","f88","[""R""]","","","","","","979","key","m","m","16.686540000000967","798","448.5","2","1","1","1","1","true","",""
"","psychophysics","551","1195585","0.0-2.0-1.172","f88","[""R""]","","","","","","null","key","null","null","16.68706779661036","798","448.5","2","1","1","1","1","","",""
"","psychophysics","552","1196594","0.0-2.0-2.172-0.172","f88","[""R""]","","","","","","null","key","null","null","16.685883333332217","798","448.5","2","1","1","1","1","","",""
"","psychophysics","553","1198226","0.0-2.0-0.173","f88","[""R""]","","","","","","928","key","z","z","16.686752577319492","798","448.5","1","0","0","1","1","true","",""
"","psychophysics","554","1199233","0.0-2.0-1.173","f88","[""R""]","","","","","","null","key","null","null","16.686186440679702","798","448.5","1","0","0","1","1","","",""
"","psychophysics","555","1200244","0.0-2.0-2.173-0.173","f88","[""R""]","","","","","","null","key","null","null","16.686616666669337","798","448.5","1","0","0","1","1","","",""
"","psychophysics","556","1202753","0.0-2.0-0.174","f88","[""R""]","","","","","","1806","key","m","m","16.686013422818892","798","448.5","2","1","0","1","1","true","",""
"","psychophysics","557","1203760","0.0-2.0-1.174","f88","[""R""]","","","","","","null","key","null","null","16.68733898305208","798","448.5","2","1","0","1","1","","",""
"","psychophysics","558","1204769","0.0-2.0-2.174-0.174","f88","[""R""]","","","","","","null","key","null","null","16.687299999998263","798","448.5","2","1","0","1","1","","",""
"","psychophysics","559","1207457","0.0-2.0-0.175","f88","[""R""]","","","","","","1984","key","z","z","16.686000000000057","798","448.5","1","1","0","1","0","true","",""
"","psychophysics","560","1208464","0.0-2.0-1.175","f88","[""R""]","","","","","","null","key","null","null","16.686305084747215","798","448.5","1","1","0","1","0","","",""
"","psychophysics","561","1209473","0.0-2.0-2.175-0.175","f88","[""R""]","","","","","","null","key","null","null","16.68670000000081","798","448.5","1","1","0","1","0","","",""
"","psychophysics","562","1211541","0.0-2.0-0.176","f88","[""R""]","","","","","","1363","key","m","m","16.686081300813296","798","448.5","2","1","1","1","1","true","",""
"","psychophysics","563","1212549","0.0-2.0-1.176","f88","[""R""]","","","","","","null","key","null","null","16.685813559321844","798","448.5","2","1","1","1","1","","",""
"","psychophysics","564","1213559","0.0-2.0-2.176-0.176","f88","[""R""]","","","","","","null","key","null","null","16.686549999999503","798","448.5","2","1","1","1","1","","",""
"","psychophysics","565","1217765","0.0-2.0-0.177","f88","[""R""]","","","","","","3501","key","m","m","16.68578884462117","798","448.5","1","1","1","1","0","false","",""
"","psychophysics","566","1218771","0.0-2.0-1.177","f88","[""R""]","","","","","","null","key","null","null","16.686271186444465","798","448.5","1","1","1","1","0","","",""
"","psychophysics","567","1219783","0.0-2.0-3.177-0.177","f88","[""R""]","","","","","","null","key","null","null","16.687216666666792","798","448.5","1","1","1","1","0","","",""
"","psychophysics","568","1222266","0.0-2.0-0.178","f88","[""R""]","","","","","","1779","key","z","z","16.685931972788683","798","448.5","1","0","1","0","1","true","",""
"","psychophysics","569","1223274","0.0-2.0-1.178","f88","[""R""]","","","","","","null","key","null","null","16.685316666669678","798","448.5","1","0","1","0","1","","",""
"","psychophysics","570","1224283","0.0-2.0-2.178-0.178","f88","[""R""]","","","","","","null","key","null","null","16.686118644066312","798","448.5","1","0","1","0","1","","",""
"","psychophysics","571","1225978","0.0-2.0-0.179","f88","[""R""]","","","","","","988","key","z","z","16.686524752474455","798","448.5","1","0","1","1","1","true","",""
"","psychophysics","572","1226988","0.0-2.0-1.179","f88","[""R""]","","","","","","null","key","null","null","16.68622033898245","798","448.5","1","0","1","1","1","","",""
