"success","trial_type","trial_index","time_elapsed","internal_node_id","subject","condition","timeout","failed_images","failed_audio","failed_video","view_history","rt","response_type","key_press","response","avg_frame_time","center_x","center_y","outcome","p1conf","p2conf","p1rslt","p2rslt","correct","stimulus","question_order"
"true","fullscreen","0","92313","0.0-0.0-0.0","ynb","[""R""]","","","","","","","","","","","","","","","","","","","",""
"true","preload","1","92316","0.0-0.0-1.0","ynb","[""R""]","false","[]","[]","[]","","","","","","","","","","","","","","","",""
"","instructions","2","134560","0.0-1.0","ynb","[""R""]","","","","","[{""page_index"":0,""viewing_time"":2859},{""page_index"":1,""viewing_time"":14908},{""page_index"":2,""viewing_time"":24474}]","42245","","","","","","","","","","","","","",""
"","psychophysics","3","139729","0.0-2.0-0.0","ynb","[""R""]","","","","","","4447","key","m","m","16.872712418300615","684","384.75","1","1","0","1","0","false","",""
"","psychophysics","4","140736","0.0-2.0-1.0","ynb","[""R""]","","","","","","null","key","null","null","16.654999999999806","684","384.75","1","1","0","1","0","","",""
"","psychophysics","5","141747","0.0-2.0-3.0-0.0","ynb","[""R""]","","","","","","null","key","null","null","16.655000000000292","684","384.75","1","1","0","1","0","","",""
"","psychophysics","6","145334","0.0-2.0-0.1","ynb","[""R""]","","","","","","2882","key","m","m","16.65676168224295","684","384.75","1","1","1","1","1","false","",""
"","psychophysics","7","146340","0.0-2.0-1.1","ynb","[""R""]","","","","","","null","key","null","null","16.655000000000317","684","384.75","1","1","1","1","1","","",""
"","psychophysics","8","147348","0.0-2.0-3.1-0.1","ynb","[""R""]","","","","","","null","key","null","null","16.654999999999806","684","384.75","1","1","1","1","1","","",""
"","psychophysics","9","149286","0.0-2.0-0.2","ynb","[""R""]","","","","","","1234","key","z","z","16.6550000000001","684","384.75","1","1","0","1","1","true","",""
"","psychophysics","10","150292","0.0-2.0-1.2","ynb","[""R""]","","","","","","null","key","null","null","16.654999999999806","684","384.75","1","1","0","1","1","","",""
"","psychophysics","11","151304","0.0-2.0-2.2-0.2","ynb","[""R""]","","","","","","null","key","null","null","16.655000000000317","684","384.75","1","1","0","1","1","","",""
"","psychophysics","12","154666","0.0-2.0-0.3","ynb","[""R""]","","","","","","2656","key","m","m","16.65687064676611","684","384.75","1","0","0","0","0","false","",""
"","psychophysics","13","155673","0.0-2.0-1.3","ynb","[""R""]","","","","","","null","key","null","null","16.654999999999806","684","384.75","1","0","0","0","0","","",""
"","psychophysics","14","156680","0.0-2.0-3.3-0.3","ynb","[""R""]","","","","","","null","key","null","null","16.655000000000317","684","384.75","1","0","0","0","0","","",""
"","psychophysics","15","158882","0.0-2.0-0.4","ynb","[""R""]","","","","","","1498","key","z","z","16.654999999999948","684","384.75","1","1","1","0","1","true","",""
"","psychophysics","16","159890","0.0-2.0-1.4","ynb","[""R""]","","","","","","null","key","null","null","16.655000000000292","684","384.75","1","1","1","0","1","","",""
"","psychophysics","17","160897","0.0-2.0-2.4-0.4","ynb","[""R""]","","","","","","null","key","null","null","17.239385964912096","684","384.75","1","1","1","0","1","","",""
"","psychophysics","18","163642","0.0-2.0-0.5","ynb","[""R""]","","","","","","2039","key","z","z","16.65500000000008","684","384.75","2","1","0","1","1","false","",""
"","psychophysics","19","164649","0.0-2.0-1.5","ynb","[""R""]","","","","","","null","key","null","null","16.661266666666293","684","384.75","2","1","0","1","1","","",""
"","psychophysics","20","165655","0.0-2.0-3.5-0.5","ynb","[""R""]","","","","","","null","key","null","null","16.655000000000317","684","384.75","2","1","0","1","1","","",""
"","psychophysics","21","167080","0.0-2.0-0.6","ynb","[""R""]","","","","","","722","key","m","m","16.654999999999863","684","384.75","1","1","1","1","1","false","",""
"","psychophysics","22","168100","0.0-2.0-1.6","ynb","[""R""]","","","","","","null","key","null","null","16.655000000000292","684","384.75","1","1","1","1","1","","",""
"","psychophysics","23","169108","0.0-2.0-3.6-0.6","ynb","[""R""]","","","","","","null","key","null","null","17.239385964912096","684","384.75","1","1","1","1","1","","",""
"","psychophysics","24","170421","0.0-2.0-0.7","ynb","[""R""]","","","","","","610","key","z","z","16.654999999999955","684","384.75","2","1","0","1","1","false","",""
"","psychophysics","25","171429","0.0-2.0-1.7","ynb","[""R""]","","","","","","null","key","null","null","16.655000000000292","684","384.75","2","1","0","1","1","","",""
"","psychophysics","26","172435","0.0-2.0-3.7-0.7","ynb","[""R""]","","","","","","null","key","null","null","17.547232142856956","684","384.75","2","1","0","1","1","","",""
"","psychophysics","27","173303","0.0-2.0-0.8","ynb","[""R""]","","","","","","160","key","m","m","16.654999999999976","684","384.75","1","0","0","1","0","false","",""
"","psychophysics","28","174312","0.0-2.0-1.8","ynb","[""R""]","","","","","","null","key","null","null","16.66126666666678","684","384.75","1","0","0","1","0","","",""
"","psychophysics","29","175327","0.0-2.0-3.8-0.8","ynb","[""R""]","","","","","","null","key","null","null","16.654999999999806","684","384.75","1","0","0","1","0","","",""
"","psychophysics","30","176495","0.0-2.0-0.9","ynb","[""R""]","","","","","","465","key","z","z","16.6550000000001","684","384.75","2","1","0","1","1","false","",""
"","psychophysics","31","177499","0.0-2.0-1.9","ynb","[""R""]","","","","","","null","key","null","null","16.655000000000317","684","384.75","2","1","0","1","1","","",""
"","psychophysics","32","178507","0.0-2.0-3.9-0.9","ynb","[""R""]","","","","","","null","key","null","null","16.654999999999806","684","384.75","2","1","0","1","1","","",""
"","psychophysics","33","181161","0.0-2.0-0.10","ynb","[""R""]","","","","","","1952","key","m","m","16.65499999999994","684","384.75","1","0","0","1","1","false","",""
"","psychophysics","34","182166","0.0-2.0-1.10","ynb","[""R""]","","","","","","null","key","null","null","16.655000000000317","684","384.75","1","0","0","1","1","","",""
"","psychophysics","35","183175","0.0-2.0-3.10-0.10","ynb","[""R""]","","","","","","null","key","null","null","16.654999999999806","684","384.75","1","0","0","1","1","","",""
"","psychophysics","36","186205","0.0-2.0-0.11","ynb","[""R""]","","","","","","2326","key","z","z","17.033514124293788","684","384.75","1","1","0","1","1","true","",""
"","psychophysics","37","187211","0.0-2.0-1.11","ynb","[""R""]","","","","","","null","key","null","null","16.655000000000317","684","384.75","1","1","0","1","1","","",""
"","psychophysics","38","188221","0.0-2.0-2.11-0.11","ynb","[""R""]","","","","","","null","key","null","null","16.937288135593022","684","384.75","1","1","0","1","1","","",""
"","psychophysics","39","190646","0.0-2.0-0.12","ynb","[""R""]","","","","","","1723","key","z","z","16.65500000000004","684","384.75","2","0","0","1","1","false","",""
"","psychophysics","40","191652","0.0-2.0-1.12","ynb","[""R""]","","","","","","null","key","null","null","16.654999999999824","684","384.75","2","0","0","1","1","","",""
"","psychophysics","41","192670","0.0-2.0-3.12-0.12","ynb","[""R""]","","","","","","null","key","null","null","16.655000000000292","684","384.75","2","0","0","1","1","","",""
"","psychophysics","42","248946","0.0-2.0-0.13","ynb","[""R""]","","","","","","55577","key","z","z","242.51228448275864","684","384.75","1","1","1","1","1","true","",""
"","psychophysics","43","249959","0.0-2.0-1.13","ynb","[""R""]","","","","","","null","key","null","null","16.654999999999806","684","384.75","1","1","1","1","1","","",""
"","psychophysics","44","250964","0.0-2.0-2.13-0.13","ynb","[""R""]","","","","","","null","key","null","null","16.654999999999824","684","384.75","1","1","1","1","1","","",""
"","psychophysics","45","253726","0.0-2.0-0.14","ynb","[""R""]","","","","","","2057","key","m","m","16.655000000000072","684","384.75","1","1","1","1","0","false","",""
"","psychophysics","46","254730","0.0-2.0-1.14","ynb","[""R""]","","","","","","null","key","null","null","16.661372881356066","684","384.75","1","1","1","1","0","","",""
"","psychophysics","47","255742","0.0-2.0-3.14-0.14","ynb","[""R""]","","","","","","null","key","null","null","16.654999999999806","684","384.75","1","1","1","1","0","","",""
"","psychophysics","48","257738","0.0-2.0-0.15","ynb","[""R""]","","","","","","1268","key","z","z","17.234304347826146","684","384.75","2","0","0","1","0","false","",""
"","psychophysics","49","258743","0.0-2.0-1.15","ynb","[""R""]","","","","","","null","key","null","null","16.654999999999824","684","384.75","2","0","0","1","0","","",""
"","psychophysics","50","259752","0.0-2.0-3.15-0.15","ynb","[""R""]","","","","","","null","key","null","null","16.654999999999806","684","384.75","2","0","0","1","0","","",""
"","psychophysics","51","266563","0.0-2.0-0.16","ynb","[""R""]","","","","","","6106","key","m","m","16.655921568627473","684","384.75","2","0","1","0","1","true","",""
"","psychophysics","52","267570","0.0-2.0-1.16","ynb","[""R""]","","","","","","null","key","null","null","16.655000000000317","684","384.75","2","0","1","0","1","","",""
"","psychophysics","53","268578","0.0-2.0-2.16-0.16","ynb","[""R""]","","","","","","null","key","null","null","16.654999999999806","684","384.75","2","0","1","0","1","","",""
"","psychophysics","54","270865","0.0-2.0-0.17","ynb","[""R""]","","","","","","1584","key","m","m","16.65500000000012","684","384.75","2","1","1","1","1","true","",""
"","psychophysics","55","271875","0.0-2.0-1.17","ynb","[""R""]","","","","","","null","key","null","null","16.655000000000776","684","384.75","2","1","1","1","1","","",""
"","psychophysics","56","272883","0.0-2.0-2.17-0.17","ynb","[""R""]","","","","","","null","key","null","null","16.655000000000317","684","384.75","2","1","1","1","1","","",""
"","psychophysics","57","274759","0.0-2.0-0.18","ynb","[""R""]","","","","","","1172","key","m","m","16.658357142857444","684","384.75","2","0","0","1","1","true","",""
"","psychophysics","58","275771","0.0-2.0-1.18","ynb","[""R""]","","","","","","null","key","null","null","16.655000000000776","684","384.75","2","0","0","1","1","","",""
"","psychophysics","59","276779","0.0-2.0-2.18-0.18","ynb","[""R""]","","","","","","null","key","null","null","16.655000000000317","684","384.75","2","0","0","1","1","","",""
"","psychophysics","60","301293","0.0-2.0-0.19","ynb","[""R""]","","","","","","23812","key","m","m","128.273602094241","684","384.75","2","1","0","1","0","true","",""
"","psychophysics","61","302298","0.0-2.0-1.19","ynb","[""R""]","","","","","","null","key","null","null","16.654999999999806","684","384.75","2","1","0","1","0","","",""
"","psychophysics","62","303305","0.0-2.0-2.19-0.19","ynb","[""R""]","","","","","","null","key","null","null","16.655000000000317","684","384.75","2","1","0","1","0","","",""
"","psychophysics","63","328053","0.0-2.0-0.20","ynb","[""R""]","","","","","","24044","key","m","m","17.504461429582452","684","384.75","2","0","0","1","1","true","",""
"","psychophysics","64","329067","0.0-2.0-1.20","ynb","[""R""]","","","","","","null","key","null","null","16.654999999999806","684","384.75","2","0","0","1","1","","",""
"","psychophysics","65","330075","0.0-2.0-2.20-0.20","ynb","[""R""]","","","","","","null","key","null","null","16.655000000000317","684","384.75","2","0","0","1","1","","",""
"","psychophysics","66","334214","0.0-2.0-0.21","ynb","[""R""]","","","","","","3429","key","z","z","16.72242914979758","684","384.75","2","1","1","0","0","false","",""
"","psychophysics","67","335220","0.0-2.0-1.21","ynb","[""R""]","","","","","","null","key","null","null","17.873109090909235","684","384.75","2","1","1","0","0","","",""
"","psychophysics","68","336227","0.0-2.0-3.21-0.21","ynb","[""R""]","","","","","","null","key","null","null","16.93728813559401","684","384.75","2","1","1","0","0","","",""
"","psychophysics","69","340116","0.0-2.0-0.22","ynb","[""R""]","","","","","","3185","key","m","m","16.873187772925856","684","384.75","2","0","1","1","1","true","",""
"","psychophysics","70","341127","0.0-2.0-1.22","ynb","[""R""]","","","","","","null","key","null","null","16.93728813559401","684","384.75","2","0","1","1","1","","",""
"","psychophysics","71","342141","0.0-2.0-2.22-0.22","ynb","[""R""]","","","","","","null","key","null","null","16.654999999999806","684","384.75","2","0","1","1","1","","",""
"","psychophysics","72","344574","0.0-2.0-0.23","ynb","[""R""]","","","","","","1730","key","m","m","16.654999999999838","684","384.75","2","1","0","1","1","true","",""
"","psychophysics","73","345586","0.0-2.0-1.23","ynb","[""R""]","","","","","","null","key","null","null","16.661283333332783","684","384.75","2","1","0","1","1","","",""
"","psychophysics","74","346593","0.0-2.0-2.23-0.23","ynb","[""R""]","","","","","","null","key","null","null","16.65499999999933","684","384.75","2","1","0","1","1","","",""
"","psychophysics","75","351110","0.0-2.0-0.24","ynb","[""R""]","","","","","","3810","key","m","m","16.71691449814118","684","384.75","2","1","0","1","1","true","",""
"","psychophysics","76","352116","0.0-2.0-1.24","ynb","[""R""]","","","","","","null","key","null","null","16.654999999999806","684","384.75","2","1","0","1","1","","",""
"","psychophysics","77","353122","0.0-2.0-2.24-0.24","ynb","[""R""]","","","","","","null","key","null","null","16.65499999999933","684","384.75","2","1","0","1","1","","",""
"","psychophysics","78","355837","0.0-2.0-0.25","ynb","[""R""]","","","","","","2005","key","z","z","16.97161006289293","684","384.75","1","0","0","1","0","true","",""
"","psychophysics","79","356843","0.0-2.0-1.25","ynb","[""R""]","","","","","","null","key","null","null","16.654999999999806","684","384.75","1","0","0","1","0","","",""
"","psychophysics","80","357861","0.0-2.0-2.25-0.25","ynb","[""R""]","","","","","","null","key","null","null","16.655000000000776","684","384.75","1","0","0","1","0","","",""
"","psychophysics","81","359844","0.0-2.0-0.26","ynb","[""R""]","","","","","","1281","key","z","z","16.797350427350747","684","384.75","1","0","1","1","1","true","",""
"","psychophysics","82","360851","0.0-2.0-1.26","ynb","[""R""]","","","","","","null","key","null","null","16.655000000000317","684","384.75","1","0","1","1","1","","",""
"","psychophysics","83","361864","0.0-2.0-2.26-0.26","ynb","[""R""]","","","","","","null","key","null","null","16.654999999999806","684","384.75","1","0","1","1","1","","",""
"","psychophysics","84","366526","0.0-2.0-0.27","ynb","[""R""]","","","","","","3954","key","z","z","16.65634767025084","684","384.75","1","1","0","1","0","true","",""
"","psychophysics","85","367540","0.0-2.0-1.27","ynb","[""R""]","","","","","","null","key","null","null","23.792857142856867","684","384.75","1","1","0","1","0","","",""
"","psychophysics","86","368555","0.0-2.0-2.27-0.27","ynb","[""R""]","","","","","","null","key","null","null","27.008108108109365","684","384.75","1","1","0","1","0","","",""
"","psychophysics","87","370936","0.0-2.0-0.28","ynb","[""R""]","","","","","","1679","key","z","z","18.786840000000318","684","384.75","1","0","0","1","0","true","",""
"","psychophysics","88","371959","0.0-2.0-1.28","ynb","[""R""]","","","","","","null","key","null","null","17.823771929824847","684","384.75","1","0","0","1","0","","",""
"","psychophysics","89","372976","0.0-2.0-2.28-0.28","ynb","[""R""]","","","","","","null","key","null","null","16.937288135593022","684","384.75","1","0","0","1","0","","",""
"","psychophysics","90","374921","0.0-2.0-0.29","ynb","[""R""]","","","","","","1234","key","z","z","17.73797222222223","684","384.75","1","1","1","0","1","true","",""
"","psychophysics","91","375966","0.0-2.0-1.29","ynb","[""R""]","","","","","","null","key","null","null","17.487749999999263","684","384.75","1","1","1","0","1","","",""
"","psychophysics","92","376979","0.0-2.0-2.29-0.29","ynb","[""R""]","","","","","","null","key","null","null","16.654999999999806","684","384.75","1","1","1","0","1","","",""
"","psychophysics","93","378903","0.0-2.0-0.30","ynb","[""R""]","","","","","","1218","key","z","z","18.082571428571274","684","384.75","1","0","0","1","1","true","",""
"","psychophysics","94","379914","0.0-2.0-1.30","ynb","[""R""]","","","","","","null","key","null","null","16.655000000000776","684","384.75","1","0","0","1","1","","",""
"","psychophysics","95","380918","0.0-2.0-2.30-0.30","ynb","[""R""]","","","","","","null","key","null","null","16.942155172414115","684","384.75","1","0","0","1","1","","",""
"","psychophysics","96","406105","0.0-2.0-0.31","ynb","[""R""]","","","","","","24481","key","z","z","18.851561048689163","684","384.75","2","0","0","0","0","false","",""
"","psychophysics","97","407113","0.0-2.0-1.31","ynb","[""R""]","","","","","","null","key","null","null","16.654999999999806","684","384.75","2","0","0","0","0","","",""
"","psychophysics","98","408120","0.0-2.0-3.31-0.31","ynb","[""R""]","","","","","","null","key","null","null","16.655000000000317","684","384.75","2","0","0","0","0","","",""
"","psychophysics","99","411871","0.0-2.0-0.32","ynb","[""R""]","","","","","","3047","key","m","m","16.729352678571427","684","384.75","2","0","1","0","1","true","",""
"","psychophysics","100","412877","0.0-2.0-1.32","ynb","[""R""]","","","","","","null","key","null","null","16.65499999999933","684","384.75","2","0","1","0","1","","",""
"","psychophysics","101","413888","0.0-2.0-2.32-0.32","ynb","[""R""]","","","","","","null","key","null","null","16.654999999999806","684","384.75","2","0","1","0","1","","",""
"","psychophysics","102","416007","0.0-2.0-0.33","ynb","[""R""]","","","","","","1416","key","m","m","16.657984126983802","684","384.75","1","0","0","0","0","false","",""
"","psychophysics","103","417010","0.0-2.0-1.33","ynb","[""R""]","","","","","","null","key","null","null","16.65499999999933","684","384.75","1","0","0","0","0","","",""
"","psychophysics","104","418021","0.0-2.0-3.33-0.33","ynb","[""R""]","","","","","","null","key","null","null","17.531578947368217","684","384.75","1","0","0","0","0","","",""
"","psychophysics","105","419890","0.0-2.0-0.34","ynb","[""R""]","","","","","","1165","key","z","z","16.65499999999962","684","384.75","1","1","1","0","1","true","",""
"","psychophysics","106","420904","0.0-2.0-1.34","ynb","[""R""]","","","","","","null","key","null","null","16.654999999999806","684","384.75","1","1","1","0","1","","",""
"","psychophysics","107","421909","0.0-2.0-2.34-0.34","ynb","[""R""]","","","","","","null","key","null","null","16.65499999999933","684","384.75","1","1","1","0","1","","",""
"","psychophysics","108","424702","0.0-2.0-0.35","ynb","[""R""]","","","","","","2082","key","z","z","16.655000000000054","684","384.75","2","1","0","1","0","false","",""
"","psychophysics","109","425711","0.0-2.0-1.35","ynb","[""R""]","","","","","","null","key","null","null","16.661283333333753","684","384.75","2","1","0","1","0","","",""
"","psychophysics","110","426729","0.0-2.0-3.35-0.35","ynb","[""R""]","","","","","","null","key","null","null","16.655000000000776","684","384.75","2","1","0","1","0","","",""
"","psychophysics","111","431602","0.0-2.0-0.36","ynb","[""R""]","","","","","","4166","key","z","z","16.946171328671262","684","384.75","2","1","1","1","0","false","",""
"","psychophysics","112","432607","0.0-2.0-1.36","ynb","[""R""]","","","","","","null","key","null","null","16.655000000000317","684","384.75","2","1","1","1","0","","",""
"","psychophysics","113","433612","0.0-2.0-3.36-0.36","ynb","[""R""]","","","","","","null","key","null","null","16.65499999999933","684","384.75","2","1","1","1","0","","",""
"","psychophysics","114","435363","0.0-2.0-0.37","ynb","[""R""]","","","","","","1048","key","m","m","17.678530612244742","684","384.75","2","1","0","1","1","true","",""
"","psychophysics","115","436371","0.0-2.0-1.37","ynb","[""R""]","","","","","","null","key","null","null","16.654999999999806","684","384.75","2","1","0","1","1","","",""
"","psychophysics","116","437377","0.0-2.0-2.37-0.37","ynb","[""R""]","","","","","","null","key","null","null","16.655000000000317","684","384.75","2","1","0","1","1","","",""
"","psychophysics","117","453818","0.0-2.0-0.38","ynb","[""R""]","","","","","","15731","key","z","z","16.706211597151523","684","384.75","1","0","1","1","1","true","",""
"","psychophysics","118","454823","0.0-2.0-1.38","ynb","[""R""]","","","","","","null","key","null","null","16.654999999999806","684","384.75","1","0","1","1","1","","",""
"","psychophysics","119","455831","0.0-2.0-2.38-0.38","ynb","[""R""]","","","","","","null","key","null","null","16.661372881356066","684","384.75","1","0","1","1","1","","",""
"","psychophysics","120","458170","0.0-2.0-0.39","ynb","[""R""]","","","","","","1623","key","z","z","16.774820143884977","684","384.75","1","0","1","1","1","true","",""
"","psychophysics","121","459181","0.0-2.0-1.39","ynb","[""R""]","","","","","","null","key","null","null","16.655000000000317","684","384.75","1","0","1","1","1","","",""
"","psychophysics","122","460188","0.0-2.0-2.39-0.39","ynb","[""R""]","","","","","","null","key","null","null","16.654999999999806","684","384.75","1","0","1","1","1","","",""
"","psychophysics","123","462472","0.0-2.0-0.40","ynb","[""R""]","","","","","","1580","key","m","m","16.65500000000012","684","384.75","2","1","1","1","1","true","",""
"","psychophysics","124","463490","0.0-2.0-1.40","ynb","[""R""]","","","","","","null","key","null","null","16.654999999999806","684","384.75","2","1","1","1","1","","",""
"","psychophysics","125","464505","0.0-2.0-2.40-0.40","ynb","[""R""]","","","","","","null","key","null","null","16.937288135593022","684","384.75","2","1","1","1","1","","",""
"","psychophysics","126","467400","0.0-2.0-0.41","ynb","[""R""]","","","","","","2193","key","m","m","16.657179190751336","684","384.75","2","1","1","1","0","true","",""
"","psychophysics","127","468406","0.0-2.0-1.41","ynb","[""R""]","","","","","","null","key","null","null","16.65499999999933","684","384.75","2","1","1","1","0","","",""
"","psychophysics","128","469412","0.0-2.0-2.41-0.41","ynb","[""R""]","","","","","","null","key","null","null","16.654999999999806","684","384.75","2","1","1","1","0","","",""
"","psychophysics","129","472805","0.0-2.0-0.42","ynb","[""R""]","","","","","","2690","key","m","m","16.654999999999987","684","384.75","2","1","1","0","1","true","",""
"","psychophysics","130","473810","0.0-2.0-1.42","ynb","[""R""]","","","","","","null","key","null","null","16.654999999999806","684","384.75","2","1","1","0","1","","",""
"","psychophysics","131","474819","0.0-2.0-2.42-0.42","ynb","[""R""]","","","","","","null","key","null","null","16.655000000000317","684","384.75","2","1","1","0","1","","",""
"","psychophysics","132","477302","0.0-2.0-0.43","ynb","[""R""]","","","","","","1777","key","z","z","17.484510638297813","684","384.75","1","0","0","1","1","true","",""
"","psychophysics","133","478306","0.0-2.0-1.43","ynb","[""R""]","","","","","","null","key","null","null","16.654999999999806","684","384.75","1","0","0","1","1","","",""
"","psychophysics","134","479312","0.0-2.0-2.43-0.43","ynb","[""R""]","","","","","","null","key","null","null","16.65499999999933","684","384.75","1","0","0","1","1","","",""
"","psychophysics","135","481965","0.0-2.0-0.44","ynb","[""R""]","","","","","","1949","key","z","z","16.65499999999994","684","384.75","2","1","0","0","1","false","",""
"","psychophysics","136","482972","0.0-2.0-1.44","ynb","[""R""]","","","","","","null","key","null","null","16.655000000000776","684","384.75","2","1","0","0","1","","",""
"","psychophysics","137","483990","0.0-2.0-3.44-0.44","ynb","[""R""]","","","","","","null","key","null","null","16.654999999999806","684","384.75","2","1","0","0","1","","",""
"","psychophysics","138","511578","0.0-2.0-0.45","ynb","[""R""]","","","","","","26886","key","m","m","16.716285021224973","684","384.75","2","0","0","1","1","true","",""
"","psychophysics","139","512586","0.0-2.0-1.45","ynb","[""R""]","","","","","","null","key","null","null","16.654999999999806","684","384.75","2","0","0","1","1","","",""
"","psychophysics","140","513611","0.0-2.0-2.45-0.45","ynb","[""R""]","","","","","","null","key","null","null","17.531578947369237","684","384.75","2","0","0","1","1","","",""
"","psychophysics","141","515892","0.0-2.0-0.46","ynb","[""R""]","","","","","","1579","key","z","z","16.657764705882393","684","384.75","2","1","0","0","0","false","",""
"","psychophysics","142","516899","0.0-2.0-1.46","ynb","[""R""]","","","","","","null","key","null","null","18.50555555555534","684","384.75","2","1","0","0","0","","",""
"","psychophysics","143","517969","0.0-2.0-3.46-0.46","ynb","[""R""]","","","","","","null","key","null","null","16.655000000000776","684","384.75","2","1","0","0","0","","",""
"","psychophysics","144","519950","0.0-2.0-0.47","ynb","[""R""]","","","","","","1279","key","z","z","16.654999999999824","684","384.75","1","1","0","1","0","true","",""
"","psychophysics","145","520962","0.0-2.0-1.47","ynb","[""R""]","","","","","","null","key","null","null","16.654999999999806","684","384.75","1","1","0","1","0","","",""
"","psychophysics","146","521969","0.0-2.0-2.47-0.47","ynb","[""R""]","","","","","","null","key","null","null","16.655000000000317","684","384.75","1","1","0","1","0","","",""
"","psychophysics","147","523351","0.0-2.0-0.48","ynb","[""R""]","","","","","","674","key","z","z","16.655000000000257","684","384.75","2","1","1","1","0","false","",""
"","psychophysics","148","524360","0.0-2.0-1.48","ynb","[""R""]","","","","","","null","key","null","null","16.654999999998836","684","384.75","2","1","1","1","0","","",""
"","psychophysics","149","525366","0.0-2.0-3.48-0.48","ynb","[""R""]","","","","","","null","key","null","null","16.661372881357053","684","384.75","2","1","1","1","0","","",""
"","psychophysics","150","527502","0.0-2.0-0.49","ynb","[""R""]","","","","","","1428","key","z","z","16.921480000000447","684","384.75","1","0","1","0","1","true","",""
"","psychophysics","151","528507","0.0-2.0-1.49","ynb","[""R""]","","","","","","null","key","null","null","17.84464285714161","684","384.75","1","0","1","0","1","","",""
"","psychophysics","152","529512","0.0-2.0-2.49-0.49","ynb","[""R""]","","","","","","null","key","null","null","16.655000000000317","684","384.75","1","0","1","0","1","","",""
"","psychophysics","153","532982","0.0-2.0-0.50","ynb","[""R""]","","","","","","2757","key","m","m","16.65499999999982","684","384.75","2","0","1","0","1","true","",""
"","psychophysics","154","533999","0.0-2.0-1.50","ynb","[""R""]","","","","","","null","key","null","null","16.654999999999312","684","384.75","2","0","1","0","1","","",""
"","psychophysics","155","535005","0.0-2.0-2.50-0.50","ynb","[""R""]","","","","","","null","key","null","null","16.655000000000317","684","384.75","2","0","1","0","1","","",""
"","psychophysics","156","537374","0.0-2.0-0.51","ynb","[""R""]","","","","","","1666","key","z","z","16.65766666666687","684","384.75","1","1","0","1","1","true","",""
"","psychophysics","157","538380","0.0-2.0-1.51","ynb","[""R""]","","","","","","null","key","null","null","16.654999999998836","684","384.75","1","1","0","1","1","","",""
"","psychophysics","158","539394","0.0-2.0-2.51-0.51","ynb","[""R""]","","","","","","null","key","null","null","16.655000000000776","684","384.75","1","1","0","1","1","","",""
"","psychophysics","159","544328","0.0-2.0-0.52","ynb","[""R""]","","","","","","4230","key","z","z","16.65499999999992","684","384.75","1","0","0","1","0","true","",""
"","psychophysics","160","545334","0.0-2.0-1.52","ynb","[""R""]","","","","","","null","key","null","null","16.948655172413744","684","384.75","1","0","0","1","0","","",""
"","psychophysics","161","546349","0.0-2.0-2.52-0.52","ynb","[""R""]","","","","","","null","key","null","null","16.655000000000776","684","384.75","1","0","0","1","0","","",""
"","psychophysics","162","564946","0.0-2.0-0.53","ynb","[""R""]","","","","","","17891","key","m","m","16.944070255474454","684","384.75","2","0","1","1","1","true","",""
"","psychophysics","163","565955","0.0-2.0-1.53","ynb","[""R""]","","","","","","null","key","null","null","16.661266666668233","684","384.75","2","0","1","1","1","","",""
"","psychophysics","164","566961","0.0-2.0-2.53-0.53","ynb","[""R""]","","","","","","null","key","null","null","16.655000000000776","684","384.75","2","0","1","1","1","","",""
"","psychophysics","165","568986","0.0-2.0-0.54","ynb","[""R""]","","","","","","1322","key","m","m","16.654999999999806","684","384.75","1","1","1","0","1","false","",""
"","psychophysics","166","570006","0.0-2.0-1.54","ynb","[""R""]","","","","","","null","key","null","null","16.654999999999312","684","384.75","1","1","1","0","1","","",""
"","psychophysics","167","571015","0.0-2.0-3.54-0.54","ynb","[""R""]","","","","","","null","key","null","null","16.655000000000317","684","384.75","1","1","1","0","1","","",""
"","psychophysics","168","572217","0.0-2.0-0.55","ynb","[""R""]","","","","","","495","key","z","z","16.655000000000065","684","384.75","1","1","1","1","1","true","",""
"","psychophysics","169","573222","0.0-2.0-1.55","ynb","[""R""]","","","","","","null","key","null","null","16.655000000000776","684","384.75","1","1","1","1","1","","",""
"","psychophysics","170","574229","0.0-2.0-2.55-0.55","ynb","[""R""]","","","","","","null","key","null","null","16.654999999998342","684","384.75","1","1","1","1","1","","",""
"","psychophysics","171","575355","0.0-2.0-0.56","ynb","[""R""]","","","","","","420","key","m","m","16.654999999999717","684","384.75","1","1","1","1","0","false","",""
"","psychophysics","172","576369","0.0-2.0-1.56","ynb","[""R""]","","","","","","null","key","null","null","16.66116393442632","684","384.75","1","1","1","1","0","","",""
"","psychophysics","173","577375","0.0-2.0-3.56-0.56","ynb","[""R""]","","","","","","null","key","null","null","16.655000000000317","684","384.75","1","1","1","1","0","","",""
"","psychophysics","174","578661","0.0-2.0-0.57","ynb","[""R""]","","","","","","583","key","z","z","16.655000000000367","684","384.75","2","0","1","0","1","false","",""
"","psychophysics","175","579665","0.0-2.0-1.57","ynb","[""R""]","","","","","","null","key","null","null","16.937288135592038","684","384.75","2","0","1","0","1","","",""
"","psychophysics","176","580672","0.0-2.0-3.57-0.57","ynb","[""R""]","","","","","","null","key","null","null","16.655000000000317","684","384.75","2","0","1","0","1","","",""
"","psychophysics","177","581441","0.0-2.0-0.58","ynb","[""R""]","","","","","","60","key","z","z","17.429651162790154","684","384.75","2","0","0","1","0","false","",""
"","psychophysics","178","582445","0.0-2.0-1.58","ynb","[""R""]","","","","","","null","key","null","null","16.654999999998836","684","384.75","2","0","0","1","0","","",""
"","psychophysics","179","583467","0.0-2.0-3.58-0.58","ynb","[""R""]","","","","","","null","key","null","null","16.655000000000776","684","384.75","2","0","0","1","0","","",""
"","psychophysics","180","586292","0.0-2.0-0.59","ynb","[""R""]","","","","","","2123","key","z","z","16.65724404761845","684","384.75","2","0","0","1","0","false","",""
"","psychophysics","181","587297","0.0-2.0-1.59","ynb","[""R""]","","","","","","null","key","null","null","16.655000000000776","684","384.75","2","0","0","1","0","","",""
"","psychophysics","182","588303","0.0-2.0-3.59-0.59","ynb","[""R""]","","","","","","null","key","null","null","16.654999999998342","684","384.75","2","0","0","1","0","","",""
"","psychophysics","183","589385","0.0-2.0-0.60","ynb","[""R""]","","","","","","380","key","m","m","16.655000000000655","684","384.75","1","0","1","1","1","false","",""
"","psychophysics","184","590425","0.0-2.0-1.60","ynb","[""R""]","","","","","","null","key","null","null","16.928032786885016","684","384.75","1","0","1","1","1","","",""
"","psychophysics","185","591442","0.0-2.0-3.60-0.60","ynb","[""R""]","","","","","","null","key","null","null","16.655000000000776","684","384.75","1","0","1","1","1","","",""
"","psychophysics","186","597131","0.0-2.0-0.61","ynb","[""R""]","","","","","","4987","key","m","m","16.656105882352943","684","384.75","2","0","0","0","1","true","",""
"","psychophysics","187","598138","0.0-2.0-1.61","ynb","[""R""]","","","","","","null","key","null","null","16.654999999998836","684","384.75","2","0","0","0","1","","",""
"","psychophysics","188","599146","0.0-2.0-2.61-0.61","ynb","[""R""]","","","","","","null","key","null","null","16.655000000000317","684","384.75","2","0","0","0","1","","",""
"","psychophysics","189","601461","0.0-2.0-0.62","ynb","[""R""]","","","","","","1609","key","m","m","17.281127819548978","684","384.75","2","1","1","1","1","true","",""
"","psychophysics","190","602484","0.0-2.0-1.62","ynb","[""R""]","","","","","","null","key","null","null","16.655000000000776","684","384.75","2","1","1","1","1","","",""
"","psychophysics","191","603504","0.0-2.0-2.62-0.62","ynb","[""R""]","","","","","","null","key","null","null","16.65500000000122","684","384.75","2","1","1","1","1","","",""
"","psychophysics","192","607905","0.0-2.0-0.63","ynb","[""R""]","","","","","","3699","key","z","z","16.65642965779447","684","384.75","1","1","1","1","1","true","",""
"","psychophysics","193","608914","0.0-2.0-1.63","ynb","[""R""]","","","","","","null","key","null","null","16.654999999998836","684","384.75","1","1","1","1","1","","",""
"","psychophysics","194","609918","0.0-2.0-2.63-0.63","ynb","[""R""]","","","","","","null","key","null","null","16.655000000000317","684","384.75","1","1","1","1","1","","",""
"","psychophysics","195","612751","0.0-2.0-0.64","ynb","[""R""]","","","","","","2131","key","z","z","16.654999999999696","684","384.75","1","1","0","1","0","true","",""
"","psychophysics","196","613763","0.0-2.0-1.64","ynb","[""R""]","","","","","","null","key","null","null","16.655000000000776","684","384.75","1","1","0","1","0","","",""
"","psychophysics","197","614769","0.0-2.0-2.64-0.64","ynb","[""R""]","","","","","","null","key","null","null","16.655000000000317","684","384.75","1","1","0","1","0","","",""
"","psychophysics","198","617649","0.0-2.0-0.65","ynb","[""R""]","","","","","","2173","key","m","m","16.657186046511416","684","384.75","2","1","0","1","0","true","",""
"","psychophysics","199","618662","0.0-2.0-1.65","ynb","[""R""]","","","","","","null","key","null","null","18.505555555556416","684","384.75","2","1","0","1","0","","",""
"","psychophysics","200","619674","0.0-2.0-2.65-0.65","ynb","[""R""]","","","","","","null","key","null","null","16.655000000000776","684","384.75","2","1","0","1","0","","",""
"","psychophysics","201","625157","0.0-2.0-0.66","ynb","[""R""]","","","","","","4780","key","z","z","16.6549999999999","684","384.75","2","1","0","1","0","false","",""
"","psychophysics","202","626168","0.0-2.0-1.66","ynb","[""R""]","","","","","","null","key","null","null","16.661389830508426","684","384.75","2","1","0","1","0","","",""
"","psychophysics","203","627180","0.0-2.0-3.66-0.66","ynb","[""R""]","","","","","","null","key","null","null","16.654999999999312","684","384.75","2","1","0","1","0","","",""
"","psychophysics","204","632049","0.0-2.0-0.67","ynb","[""R""]","","","","","","4166","key","z","z","16.654999999999937","684","384.75","1","1","0","1","1","true","",""
"","psychophysics","205","633057","0.0-2.0-1.67","ynb","[""R""]","","","","","","null","key","null","null","16.654999999998342","684","384.75","1","1","0","1","1","","",""
"","psychophysics","206","634063","0.0-2.0-2.67-0.67","ynb","[""R""]","","","","","","null","key","null","null","16.93728813559401","684","384.75","1","1","0","1","1","","",""
"","psychophysics","207","636343","0.0-2.0-0.68","ynb","[""R""]","","","","","","1576","key","z","z","16.657764705882393","684","384.75","1","0","1","1","1","true","",""
"","psychophysics","208","637348","0.0-2.0-1.68","ynb","[""R""]","","","","","","null","key","null","null","17.547232142857474","684","384.75","1","0","1","1","1","","",""
"","psychophysics","209","638358","0.0-2.0-2.68-0.68","ynb","[""R""]","","","","","","null","key","null","null","16.654999999998836","684","384.75","1","0","1","1","1","","",""
"","psychophysics","210","651855","0.0-2.0-0.69","ynb","[""R""]","","","","","","12792","key","m","m","16.71745781637725","684","384.75","1","0","0","0","1","false","",""
"","psychophysics","211","652870","0.0-2.0-1.69","ynb","[""R""]","","","","","","null","key","null","null","16.655000000000776","684","384.75","1","0","0","0","1","","",""
"","psychophysics","212","653878","0.0-2.0-3.69-0.69","ynb","[""R""]","","","","","","null","key","null","null","16.654999999998836","684","384.75","1","0","0","0","1","","",""
"","psychophysics","213","656394","0.0-2.0-0.70","ynb","[""R""]","","","","","","1813","key","m","m","16.88260810810843","684","384.75","2","0","1","0","1","true","",""
"","psychophysics","214","657407","0.0-2.0-1.70","ynb","[""R""]","","","","","","null","key","null","null","16.655000000000317","684","384.75","2","0","1","0","1","","",""
"","psychophysics","215","658420","0.0-2.0-2.70-0.70","ynb","[""R""]","","","","","","null","key","null","null","16.942155172414115","684","384.75","2","0","1","0","1","","",""
"","psychophysics","216","660401","0.0-2.0-0.71","ynb","[""R""]","","","","","","1274","key","z","z","17.239385964912607","684","384.75","1","1","0","1","1","true","",""
"","psychophysics","217","661408","0.0-2.0-1.71","ynb","[""R""]","","","","","","null","key","null","null","16.654999999998836","684","384.75","1","1","0","1","1","","",""
"","psychophysics","218","662423","0.0-2.0-2.71-0.71","ynb","[""R""]","","","","","","null","key","null","null","16.655000000000776","684","384.75","1","1","0","1","1","","",""
"","psychophysics","219","664981","0.0-2.0-0.72","ynb","[""R""]","","","","","","1854","key","z","z","16.654999999999603","684","384.75","1","1","0","0","1","true","",""
"","psychophysics","220","665991","0.0-2.0-1.72","ynb","[""R""]","","","","","","null","key","null","null","16.661283333333753","684","384.75","1","1","0","0","1","","",""
"","psychophysics","221","666997","0.0-2.0-2.72-0.72","ynb","[""R""]","","","","","","null","key","null","null","16.655000000000317","684","384.75","1","1","0","0","1","","",""
"","psychophysics","222","669112","0.0-2.0-0.73","ynb","[""R""]","","","","","","1413","key","z","z","16.65500000000022","684","384.75","1","1","0","1","0","true","",""
"","psychophysics","223","670121","0.0-2.0-1.73","ynb","[""R""]","","","","","","null","key","null","null","16.654999999998836","684","384.75","1","1","0","1","0","","",""
"","psychophysics","224","671129","0.0-2.0-2.73-0.73","ynb","[""R""]","","","","","","null","key","null","null","16.655000000000317","684","384.75","1","1","0","1","0","","",""
"","psychophysics","225","678630","0.0-2.0-0.74","ynb","[""R""]","","","","","","6798","key","m","m","16.767619686800742","684","384.75","2","0","0","1","0","true","",""
"","psychophysics","226","679636","0.0-2.0-1.74","ynb","[""R""]","","","","","","null","key","null","null","16.655000000000317","684","384.75","2","0","0","1","0","","",""
"","psychophysics","227","680642","0.0-2.0-2.74-0.74","ynb","[""R""]","","","","","","null","key","null","null","16.655000000000776","684","384.75","2","0","0","1","0","","",""
"","psychophysics","228","685826","0.0-2.0-0.75","ynb","[""R""]","","","","","","4479","key","z","z","16.656212903225736","684","384.75","1","0","0","1","0","true","",""
"","psychophysics","229","686840","0.0-2.0-1.75","ynb","[""R""]","","","","","","null","key","null","null","16.654999999998836","684","384.75","1","0","0","1","0","","",""
"","psychophysics","230","687850","0.0-2.0-2.75-0.75","ynb","[""R""]","","","","","","null","key","null","null","16.655000000000317","684","384.75","1","0","0","1","0","","",""
"","psychophysics","231","696307","0.0-2.0-0.76","ynb","[""R""]","","","","","","7752","key","z","z","16.788192842942365","684","384.75","1","1","1","1","1","true","",""
"","psychophysics","232","697323","0.0-2.0-1.76","ynb","[""R""]","","","","","","null","key","null","null","16.655000000000776","684","384.75","1","1","1","1","1","","",""
"","psychophysics","233","698335","0.0-2.0-2.76-0.76","ynb","[""R""]","","","","","","null","key","null","null","16.654999999998836","684","384.75","1","1","1","1","1","","",""
"","psychophysics","234","704442","0.0-2.0-0.77","ynb","[""R""]","","","","","","5405","key","z","z","16.655000000000193","684","384.75","1","1","1","1","1","true","",""
"","psychophysics","235","705450","0.0-2.0-1.77","ynb","[""R""]","","","","","","null","key","null","null","16.655000000000776","684","384.75","1","1","1","1","1","","",""
"","psychophysics","236","706463","0.0-2.0-2.77-0.77","ynb","[""R""]","","","","","","null","key","null","null","16.661283333331813","684","384.75","1","1","1","1","1","","",""
"","psychophysics","237","711279","0.0-2.0-0.78","ynb","[""R""]","","","","","","4114","key","z","z","16.949257950530086","684","384.75","1","1","0","1","1","true","",""
"","psychophysics","238","712289","0.0-2.0-1.78","ynb","[""R""]","","","","","","null","key","null","null","16.654999999998836","684","384.75","1","1","0","1","1","","",""
"","psychophysics","239","713295","0.0-2.0-2.78-0.78","ynb","[""R""]","","","","","","null","key","null","null","16.655000000000317","684","384.75","1","1","0","1","1","","",""
"","psychophysics","240","715158","0.0-2.0-0.79","ynb","[""R""]","","","","","","1160","key","m","m","16.65499999999962","684","384.75","1","1","0","0","0","false","",""
"","psychophysics","241","716165","0.0-2.0-1.79","ynb","[""R""]","","","","","","null","key","null","null","16.66137288135508","684","384.75","1","1","0","0","0","","",""
"","psychophysics","242","717187","0.0-2.0-3.79-0.79","ynb","[""R""]","","","","","","null","key","null","null","16.654999999999312","684","384.75","1","1","0","0","0","","",""
"","psychophysics","243","719461","0.0-2.0-0.80","ynb","[""R""]","","","","","","1571","key","z","z","16.655000000000346","684","384.75","2","1","1","0","1","false","",""
"","psychophysics","244","720472","0.0-2.0-1.80","ynb","[""R""]","","","","","","null","key","null","null","16.654999999998836","684","384.75","2","1","1","0","1","","",""
"","psychophysics","245","721483","0.0-2.0-3.80-0.80","ynb","[""R""]","","","","","","null","key","null","null","16.655000000000776","684","384.75","2","1","1","0","1","","",""
"","psychophysics","246","723567","0.0-2.0-0.81","ynb","[""R""]","","","","","","1381","key","z","z","16.655000000000715","684","384.75","1","0","1","0","1","true","",""
"","psychophysics","247","724574","0.0-2.0-1.81","ynb","[""R""]","","","","","","null","key","null","null","16.655000000000317","684","384.75","1","0","1","0","1","","",""
"","psychophysics","248","725582","0.0-2.0-2.81-0.81","ynb","[""R""]","","","","","","null","key","null","null","16.655000000000776","684","384.75","1","0","1","0","1","","",""
"","psychophysics","249","729353","0.0-2.0-0.82","ynb","[""R""]","","","","","","3069","key","z","z","16.73103125000021","684","384.75","2","0","1","0","1","false","",""
"","psychophysics","250","730360","0.0-2.0-1.82","ynb","[""R""]","","","","","","null","key","null","null","16.654999999998836","684","384.75","2","0","1","0","1","","",""
"","psychophysics","251","731365","0.0-2.0-3.82-0.82","ynb","[""R""]","","","","","","null","key","null","null","16.655000000000317","684","384.75","2","0","1","0","1","","",""
"","psychophysics","252","733533","0.0-2.0-0.83","ynb","[""R""]","","","","","","1466","key","z","z","16.654999999999966","684","384.75","1","0","0","1","0","true","",""
"","psychophysics","253","734542","0.0-2.0-1.83","ynb","[""R""]","","","","","","null","key","null","null","16.655000000000776","684","384.75","1","0","0","1","0","","",""
"","psychophysics","254","735548","0.0-2.0-2.83-0.83","ynb","[""R""]","","","","","","null","key","null","null","16.655000000000317","684","384.75","1","0","0","1","0","","",""
"","psychophysics","255","739433","0.0-2.0-0.84","ynb","[""R""]","","","","","","3178","key","z","z","16.656620689655217","684","384.75","2","0","0","0","0","false","",""
"","psychophysics","256","740440","0.0-2.0-1.84","ynb","[""R""]","","","","","","null","key","null","null","16.655000000000776","684","384.75","2","0","0","0","0","","",""
"","psychophysics","257","741454","0.0-2.0-3.84-0.84","ynb","[""R""]","","","","","","null","key","null","null","16.655000000000776","684","384.75","2","0","0","0","0","","",""
"","psychophysics","258","743642","0.0-2.0-0.85","ynb","[""R""]","","","","","","1484","key","m","m","16.65500000000018","684","384.75","1","0","1","1","0","false","",""
"","psychophysics","259","744654","0.0-2.0-1.85","ynb","[""R""]","","","","","","null","key","null","null","16.655000000000776","684","384.75","1","0","1","1","0","","",""
"","psychophysics","260","745670","0.0-2.0-3.85-0.85","ynb","[""R""]","","","","","","null","key","null","null","16.654999999998836","684","384.75","1","0","1","1","0","","",""
"","psychophysics","261","748798","0.0-2.0-0.86","ynb","[""R""]","","","","","","2425","key","z","z","16.65701604278056","684","384.75","1","1","1","1","1","true","",""
"","psychophysics","262","749805","0.0-2.0-1.86","ynb","[""R""]","","","","","","null","key","null","null","16.655000000000317","684","384.75","1","1","1","1","1","","",""
"","psychophysics","263","750829","0.0-2.0-2.86-0.86","ynb","[""R""]","","","","","","null","key","null","null","16.654999999999312","684","384.75","1","1","1","1","1","","",""
"","psychophysics","264","751727","0.0-2.0-0.87","ynb","[""R""]","","","","","","195","key","z","z","16.654999999999387","684","384.75","2","0","0","1","1","false","",""
"","psychophysics","265","752733","0.0-2.0-1.87","ynb","[""R""]","","","","","","null","key","null","null","16.655000000000317","684","384.75","2","0","0","1","1","","",""
"","psychophysics","266","753748","0.0-2.0-3.87-0.87","ynb","[""R""]","","","","","","null","key","null","null","16.655000000000776","684","384.75","2","0","0","1","1","","",""
"","psychophysics","267","754821","0.0-2.0-0.88","ynb","[""R""]","","","","","","369","key","m","m","16.65500000000022","684","384.75","2","0","1","1","1","true","",""
"","psychophysics","268","755827","0.0-2.0-1.88","ynb","[""R""]","","","","","","null","key","null","null","16.655000000000776","684","384.75","2","0","1","1","1","","",""
"","psychophysics","269","756832","0.0-2.0-2.88-0.88","ynb","[""R""]","","","","","","null","key","null","null","16.66137288135508","684","384.75","2","0","1","1","1","","",""
"","psychophysics","270","757724","0.0-2.0-0.89","ynb","[""R""]","","","","","","190","key","m","m","16.654999999999387","684","384.75","1","1","1","1","0","false","",""
"","psychophysics","271","758731","0.0-2.0-1.89","ynb","[""R""]","","","","","","null","key","null","null","16.655000000000317","684","384.75","1","1","1","1","0","","",""
"","psychophysics","272","759736","0.0-2.0-3.89-0.89","ynb","[""R""]","","","","","","null","key","null","null","16.654999999998836","684","384.75","1","1","1","1","0","","",""
"","psychophysics","273","760474","0.0-2.0-0.90","ynb","[""R""]","","","","","","35","key","z","z","16.655000000000868","684","384.75","2","0","0","1","1","false","",""
"","psychophysics","274","761488","0.0-2.0-1.90","ynb","[""R""]","","","","","","null","key","null","null","16.655000000000776","684","384.75","2","0","0","1","1","","",""
"","psychophysics","275","762493","0.0-2.0-3.90-0.90","ynb","[""R""]","","","","","","null","key","null","null","16.655000000000317","684","384.75","2","0","0","1","1","","",""
"","psychophysics","276","763527","0.0-2.0-0.91","ynb","[""R""]","","","","","","324","key","z","z","16.65500000000122","684","384.75","1","1","1","1","1","true","",""
"","psychophysics","277","764533","0.0-2.0-1.91","ynb","[""R""]","","","","","","null","key","null","null","16.654999999998836","684","384.75","1","1","1","1","1","","",""
"","psychophysics","278","765538","0.0-2.0-2.91-0.91","ynb","[""R""]","","","","","","null","key","null","null","16.655000000000317","684","384.75","1","1","1","1","1","","",""
"","psychophysics","279","766439","0.0-2.0-0.92","ynb","[""R""]","","","","","","198","key","z","z","16.98251923076952","684","384.75","2","0","1","0","1","false","",""
"","psychophysics","280","767445","0.0-2.0-1.92","ynb","[""R""]","","","","","","null","key","null","null","16.655000000000317","684","384.75","2","0","1","0","1","","",""
"","psychophysics","281","768452","0.0-2.0-3.92-0.92","ynb","[""R""]","","","","","","null","key","null","null","16.655000000000317","684","384.75","2","0","1","0","1","","",""
"","psychophysics","282","769508","0.0-2.0-0.93","ynb","[""R""]","","","","","","352","key","m","m","16.654999999999774","684","384.75","2","0","0","1","0","true","",""
"","psychophysics","283","770515","0.0-2.0-1.93","ynb","[""R""]","","","","","","null","key","null","null","16.655000000000776","684","384.75","2","0","0","1","0","","",""
"","psychophysics","284","771521","0.0-2.0-2.93-0.93","ynb","[""R""]","","","","","","null","key","null","null","16.655000000000317","684","384.75","2","0","0","1","0","","",""
"","psychophysics","285","778818","0.0-2.0-0.94","ynb","[""R""]","","","","","","6594","key","m","m","16.69406192660558","684","384.75","2","0","0","1","1","true","",""
"","psychophysics","286","779830","0.0-2.0-1.94","ynb","[""R""]","","","","","","null","key","null","null","16.655000000000776","684","384.75","2","0","0","1","1","","",""
"","psychophysics","287","780844","0.0-2.0-2.94-0.94","ynb","[""R""]","","","","","","null","key","null","null","16.654999999998836","684","384.75","2","0","0","1","1","","",""
"","psychophysics","288","784033","0.0-2.0-0.95","ynb","[""R""]","","","","","","2486","key","m","m","16.655000000000076","684","384.75","2","1","0","1","0","true","",""
"","psychophysics","289","785039","0.0-2.0-1.95","ynb","[""R""]","","","","","","null","key","null","null","16.928032786885016","684","384.75","2","1","0","1","0","","",""
"","psychophysics","290","786050","0.0-2.0-2.95-0.95","ynb","[""R""]","","","","","","null","key","null","null","16.661389830508426","684","384.75","2","1","0","1","0","","",""
"","psychophysics","291","788152","0.0-2.0-0.96","ynb","[""R""]","","","","","","1398","key","z","z","16.788240000000222","684","384.75","1","1","0","1","0","true","",""
"","psychophysics","292","789157","0.0-2.0-1.96","ynb","[""R""]","","","","","","null","key","null","null","16.655000000000317","684","384.75","1","1","0","1","0","","",""
"","psychophysics","293","790166","0.0-2.0-2.96-0.96","ynb","[""R""]","","","","","","null","key","null","null","16.654999999998836","684","384.75","1","1","0","1","0","","",""
"","psychophysics","294","792087","0.0-2.0-0.97","ynb","[""R""]","","","","","","1219","key","z","z","16.655000000000367","684","384.75","2","0","0","0","0","false","",""
"","psychophysics","295","793092","0.0-2.0-1.97","ynb","[""R""]","","","","","","null","key","null","null","16.655000000000317","684","384.75","2","0","0","0","0","","",""
"","psychophysics","296","794101","0.0-2.0-3.97-0.97","ynb","[""R""]","","","","","","null","key","null","null","16.654999999998836","684","384.75","2","0","0","0","0","","",""
"","psychophysics","297","795063","0.0-2.0-0.98","ynb","[""R""]","","","","","","260","key","z","z","16.957818181819114","684","384.75","2","0","0","1","0","false","",""
"","psychophysics","298","796067","0.0-2.0-1.98","ynb","[""R""]","","","","","","null","key","null","null","16.661266666666293","684","384.75","2","0","0","1","0","","",""
"","psychophysics","299","797096","0.0-2.0-3.98-0.98","ynb","[""R""]","","","","","","null","key","null","null","16.654999999998342","684","384.75","2","0","0","1","0","","",""
"","psychophysics","300","800727","0.0-2.0-0.99","ynb","[""R""]","","","","","","2929","key","m","m","16.966308411215127","684","384.75","2","0","1","0","1","true","",""
"","psychophysics","301","801730","0.0-2.0-1.99","ynb","[""R""]","","","","","","null","key","null","null","17.547232142857474","684","384.75","2","0","1","0","1","","",""
"","psychophysics","302","802738","0.0-2.0-2.99-0.99","ynb","[""R""]","","","","","","null","key","null","null","16.93728813559401","684","384.75","2","0","1","0","1","","",""
"","html-keyboard-response","303","809956","0.0-2.0-4.99-0.99","ynb","[""R""]","","","","","","7211","","","g","","","","","","","","","","<p>You have finished block 1 of 5.<p>You correctly predicted 61% of the races.<p>On the next screen, you will be given a 30 second break. Press the <b>g</b> key to start your break.",""
"","html-keyboard-response","304","810962","0.0-2.0-4.99-1.99-0.99","ynb","[""R""]","","","","","","null","","","null","","","","","","","","","","<p>The experiment will resume in 30 seconds. ",""
"","html-keyboard-response","305","811968","0.0-2.0-4.99-1.99-1.99","ynb","[""R""]","","","","","","null","","","null","","","","","","","","","","<p>The experiment will resume in 29 seconds. ",""
"","html-keyboard-response","306","812972","0.0-2.0-4.99-1.99-2.99","ynb","[""R""]","","","","","","null","","","null","","","","","","","","","","<p>The experiment will resume in 28 seconds. ",""
"","html-keyboard-response","307","813978","0.0-2.0-4.99-1.99-3.99","ynb","[""R""]","","","","","","null","","","null","","","","","","","","","","<p>The experiment will resume in 27 seconds. ",""
"","html-keyboard-response","308","814987","0.0-2.0-4.99-1.99-4.99","ynb","[""R""]","","","","","","null","","","null","","","","","","","","","","<p>The experiment will resume in 26 seconds. ",""
"","html-keyboard-response","309","815994","0.0-2.0-4.99-1.99-5.99","ynb","[""R""]","","","","","","null","","","null","","","","","","","","","","<p>The experiment will resume in 25 seconds. ",""
"","html-keyboard-response","310","817000","0.0-2.0-4.99-1.99-6.99","ynb","[""R""]","","","","","","null","","","null","","","","","","","","","","<p>The experiment will resume in 24 seconds. ",""
"","html-keyboard-response","311","818005","0.0-2.0-4.99-1.99-7.99","ynb","[""R""]","","","","","","null","","","null","","","","","","","","","","<p>The experiment will resume in 23 seconds. ",""
"","html-keyboard-response","312","819008","0.0-2.0-4.99-1.99-8.99","ynb","[""R""]","","","","","","null","","","null","","","","","","","","","","<p>The experiment will resume in 22 seconds. ",""
"","html-keyboard-response","313","820009","0.0-2.0-4.99-1.99-9.99","ynb","[""R""]","","","","","","null","","","null","","","","","","","","","","<p>The experiment will resume in 21 seconds. ",""
"","html-keyboard-response","314","821014","0.0-2.0-4.99-1.99-10.99","ynb","[""R""]","","","","","","null","","","null","","","","","","","","","","<p>The experiment will resume in 20 seconds. ",""
"","html-keyboard-response","315","822017","0.0-2.0-4.99-1.99-11.99","ynb","[""R""]","","","","","","null","","","null","","","","","","","","","","<p>The experiment will resume in 19 seconds. ",""
"","html-keyboard-response","316","823021","0.0-2.0-4.99-1.99-12.99","ynb","[""R""]","","","","","","null","","","null","","","","","","","","","","<p>The experiment will resume in 18 seconds. ",""
"","html-keyboard-response","317","824025","0.0-2.0-4.99-1.99-13.99","ynb","[""R""]","","","","","","null","","","null","","","","","","","","","","<p>The experiment will resume in 17 seconds. ",""
"","html-keyboard-response","318","825029","0.0-2.0-4.99-1.99-14.99","ynb","[""R""]","","","","","","null","","","null","","","","","","","","","","<p>The experiment will resume in 16 seconds. ",""
"","html-keyboard-response","319","826033","0.0-2.0-4.99-1.99-15.99","ynb","[""R""]","","","","","","null","","","null","","","","","","","","","","<p>The experiment will resume in 15 seconds. ",""
"","html-keyboard-response","320","827035","0.0-2.0-4.99-1.99-16.99","ynb","[""R""]","","","","","","null","","","null","","","","","","","","","","<p>The experiment will resume in 14 seconds. ",""
"","html-keyboard-response","321","828037","0.0-2.0-4.99-1.99-17.99","ynb","[""R""]","","","","","","null","","","null","","","","","","","","","","<p>The experiment will resume in 13 seconds. ",""
"","html-keyboard-response","322","829041","0.0-2.0-4.99-1.99-18.99","ynb","[""R""]","","","","","","null","","","null","","","","","","","","","","<p>The experiment will resume in 12 seconds. ",""
"","html-keyboard-response","323","830045","0.0-2.0-4.99-1.99-19.99","ynb","[""R""]","","","","","","null","","","null","","","","","","","","","","<p>The experiment will resume in 11 seconds. ",""
"","html-keyboard-response","324","831051","0.0-2.0-4.99-1.99-20.99","ynb","[""R""]","","","","","","null","","","null","","","","","","","","","","<p>The experiment will resume in 10 seconds. ",""
"","html-keyboard-response","325","832056","0.0-2.0-4.99-1.99-21.99","ynb","[""R""]","","","","","","null","","","null","","","","","","","","","","<p>The experiment will resume in 9 seconds. ",""
"","html-keyboard-response","326","833058","0.0-2.0-4.99-1.99-22.99","ynb","[""R""]","","","","","","null","","","null","","","","","","","","","","<p>The experiment will resume in 8 seconds. ",""
"","html-keyboard-response","327","834065","0.0-2.0-4.99-1.99-23.99","ynb","[""R""]","","","","","","null","","","null","","","","","","","","","","<p>The experiment will resume in 7 seconds. ",""
"","html-keyboard-response","328","835067","0.0-2.0-4.99-1.99-24.99","ynb","[""R""]","","","","","","null","","","null","","","","","","","","","","<p>The experiment will resume in 6 seconds. ",""
"","html-keyboard-response","329","836069","0.0-2.0-4.99-1.99-25.99","ynb","[""R""]","","","","","","null","","","null","","","","","","","","","","<p>The experiment will resume in 5 seconds. ",""
"","html-keyboard-response","330","837073","0.0-2.0-4.99-1.99-26.99","ynb","[""R""]","","","","","","null","","","null","","","","","","","","","","<p>The experiment will resume in 4 seconds. ",""
"","html-keyboard-response","331","838077","0.0-2.0-4.99-1.99-27.99","ynb","[""R""]","","","","","","null","","","null","","","","","","","","","","<p>The experiment will resume in 3 seconds. ",""
"","html-keyboard-response","332","839080","0.0-2.0-4.99-1.99-28.99","ynb","[""R""]","","","","","","null","","","null","","","","","","","","","","<p>The experiment will resume in 2 seconds. ",""
"","html-keyboard-response","333","840086","0.0-2.0-4.99-1.99-29.99","ynb","[""R""]","","","","","","null","","","null","","","","","","","","","","<p>The experiment will resume in 1 seconds. ",""
"","psychophysics","334","843025","0.0-2.0-0.100","ynb","[""R""]","","","","","","2232","key","m","m","16.847543352601157","684","384.75","1","0","1","0","1","false","",""
"","psychophysics","335","844029","0.0-2.0-1.100","ynb","[""R""]","","","","","","null","key","null","null","16.654999999999312","684","384.75","1","0","1","0","1","","",""
"","psychophysics","336","845037","0.0-2.0-3.100-0.100","ynb","[""R""]","","","","","","null","key","null","null","16.655000000000317","684","384.75","1","0","1","0","1","","",""
"","psychophysics","337","848023","0.0-2.0-0.101","ynb","[""R""]","","","","","","2281","key","m","m","16.657112359550645","684","384.75","1","0","0","0","1","false","",""
"","psychophysics","338","849038","0.0-2.0-1.101","ynb","[""R""]","","","","","","null","key","null","null","18.47190909090833","684","384.75","1","0","0","0","1","","",""
"","psychophysics","339","850043","0.0-2.0-3.101-0.101","ynb","[""R""]","","","","","","null","key","null","null","16.655000000000317","684","384.75","1","0","0","0","1","","",""
"","psychophysics","340","852959","0.0-2.0-0.102","ynb","[""R""]","","","","","","2214","key","m","m","16.654999999999838","684","384.75","2","0","1","1","1","true","",""
"","psychophysics","341","853975","0.0-2.0-1.102","ynb","[""R""]","","","","","","null","key","null","null","16.654999999998836","684","384.75","2","0","1","1","1","","",""
"","psychophysics","342","854980","0.0-2.0-2.102-0.102","ynb","[""R""]","","","","","","null","key","null","null","16.655000000000317","684","384.75","2","0","1","1","1","","",""
"","psychophysics","343","857043","0.0-2.0-0.103","ynb","[""R""]","","","","","","1357","key","m","m","16.794606557376415","684","384.75","2","0","1","0","1","true","",""
"","psychophysics","344","858062","0.0-2.0-1.103","ynb","[""R""]","","","","","","null","key","null","null","16.655000000000776","684","384.75","2","0","1","0","1","","",""
"","psychophysics","345","859072","0.0-2.0-2.103-0.103","ynb","[""R""]","","","","","","null","key","null","null","16.654999999998836","684","384.75","2","0","1","0","1","","",""
"","psychophysics","346","861137","0.0-2.0-0.104","ynb","[""R""]","","","","","","1363","key","m","m","16.654999999999546","684","384.75","2","0","0","1","1","true","",""
"","psychophysics","347","862145","0.0-2.0-1.104","ynb","[""R""]","","","","","","null","key","null","null","16.655000000000317","684","384.75","2","0","0","1","1","","",""
"","psychophysics","348","863154","0.0-2.0-2.104-0.104","ynb","[""R""]","","","","","","null","key","null","null","16.654999999998836","684","384.75","2","0","0","1","1","","",""
"","psychophysics","349","864921","0.0-2.0-0.105","ynb","[""R""]","","","","","","1063","key","m","m","16.65500000000022","684","384.75","2","1","1","1","1","true","",""
"","psychophysics","350","865937","0.0-2.0-1.105","ynb","[""R""]","","","","","","null","key","null","null","16.654999999998836","684","384.75","2","1","1","1","1","","",""
"","psychophysics","351","866945","0.0-2.0-2.105-0.105","ynb","[""R""]","","","","","","null","key","null","null","16.661266666666293","684","384.75","2","1","1","1","1","","",""
"","psychophysics","352","871152","0.0-2.0-0.106","ynb","[""R""]","","","","","","3503","key","z","z","17.132807377049296","684","384.75","1","1","0","1","1","true","",""
"","psychophysics","353","872158","0.0-2.0-1.106","ynb","[""R""]","","","","","","null","key","null","null","16.654999999998836","684","384.75","1","1","0","1","1","","",""
"","psychophysics","354","873171","0.0-2.0-2.106-0.106","ynb","[""R""]","","","","","","null","key","null","null","16.655000000000317","684","384.75","1","1","0","1","1","","",""
"","psychophysics","355","875077","0.0-2.0-0.107","ynb","[""R""]","","","","","","1196","key","m","m","16.802389380531345","684","384.75","2","0","1","1","1","true","",""
"","psychophysics","356","876089","0.0-2.0-1.107","ynb","[""R""]","","","","","","null","key","null","null","16.654999999998836","684","384.75","2","0","1","1","1","","",""
"","psychophysics","357","877094","0.0-2.0-2.107-0.107","ynb","[""R""]","","","","","","null","key","null","null","16.661372881357053","684","384.75","2","0","1","1","1","","",""
"","psychophysics","358","879590","0.0-2.0-0.108","ynb","[""R""]","","","","","","1789","key","m","m","16.655000000000594","684","384.75","2","0","0","0","1","true","",""
"","psychophysics","359","880598","0.0-2.0-1.108","ynb","[""R""]","","","","","","null","key","null","null","16.655000000000317","684","384.75","2","0","0","0","1","","",""
"","psychophysics","360","881605","0.0-2.0-2.108-0.108","ynb","[""R""]","","","","","","null","key","null","null","16.655000000000776","684","384.75","2","0","0","0","1","","",""
"","psychophysics","361","883804","0.0-2.0-0.109","ynb","[""R""]","","","","","","1496","key","z","z","16.655000000000392","684","384.75","1","1","0","0","1","true","",""
"","psychophysics","362","884818","0.0-2.0-1.109","ynb","[""R""]","","","","","","null","key","null","null","16.654999999998836","684","384.75","1","1","0","0","1","","",""
"","psychophysics","363","885835","0.0-2.0-2.109-0.109","ynb","[""R""]","","","","","","null","key","null","null","16.655000000000776","684","384.75","1","1","0","0","1","","",""
"","psychophysics","364","892677","0.0-2.0-0.110","ynb","[""R""]","","","","","","6139","key","m","m","16.65591707317096","684","384.75","2","1","0","1","1","true","",""
"","psychophysics","365","893682","0.0-2.0-1.110","ynb","[""R""]","","","","","","null","key","null","null","16.655000000000317","684","384.75","2","1","0","1","1","","",""
"","psychophysics","366","894690","0.0-2.0-2.110-0.110","ynb","[""R""]","","","","","","null","key","null","null","16.655000000000776","684","384.75","2","1","0","1","1","","",""
"","psychophysics","367","896584","0.0-2.0-0.111","ynb","[""R""]","","","","","","1191","key","m","m","16.658366071429295","684","384.75","1","0","1","1","0","false","",""
"","psychophysics","368","897589","0.0-2.0-1.111","ynb","[""R""]","","","","","","null","key","null","null","16.655000000000776","684","384.75","1","0","1","1","0","","",""
"","psychophysics","369","898594","0.0-2.0-3.111-0.111","ynb","[""R""]","","","","","","null","key","null","null","16.655000000000317","684","384.75","1","0","1","1","0","","",""
"","psychophysics","370","901104","0.0-2.0-0.112","ynb","[""R""]","","","","","","1807","key","z","z","16.655","684","384.75","2","1","0","1","1","false","",""
"","psychophysics","371","902113","0.0-2.0-1.112","ynb","[""R""]","","","","","","null","key","null","null","16.655000000000317","684","384.75","2","1","0","1","1","","",""
"","psychophysics","372","903118","0.0-2.0-3.112-0.112","ynb","[""R""]","","","","","","null","key","null","null","16.654999999998836","684","384.75","2","1","0","1","1","","",""
"","psychophysics","373","906159","0.0-2.0-0.113","ynb","[""R""]","","","","","","2339","key","m","m","16.655000000000282","684","384.75","2","0","1","1","1","true","",""
"","psychophysics","374","907167","0.0-2.0-1.113","ynb","[""R""]","","","","","","null","key","null","null","16.661266666668233","684","384.75","2","0","1","1","1","","",""
"","psychophysics","375","908173","0.0-2.0-2.113-0.113","ynb","[""R""]","","","","","","null","key","null","null","16.655000000000317","684","384.75","2","0","1","1","1","","",""
"","psychophysics","376","909842","0.0-2.0-0.114","ynb","[""R""]","","","","","","966","key","m","m","16.654999999999717","684","384.75","2","0","1","1","1","true","",""
"","psychophysics","377","910847","0.0-2.0-1.114","ynb","[""R""]","","","","","","null","key","null","null","16.655000000000776","684","384.75","2","0","1","1","1","","",""
"","psychophysics","378","911853","0.0-2.0-2.114-0.114","ynb","[""R""]","","","","","","null","key","null","null","16.655000000000317","684","384.75","2","0","1","1","1","","",""
"","psychophysics","379","913744","0.0-2.0-0.115","ynb","[""R""]","","","","","","1187","key","m","m","16.655000000000122","684","384.75","2","0","1","1","1","true","",""
"","psychophysics","380","914759","0.0-2.0-1.115","ynb","[""R""]","","","","","","null","key","null","null","16.654999999998836","684","384.75","2","0","1","1","1","","",""
"","psychophysics","381","915778","0.0-2.0-2.115-0.115","ynb","[""R""]","","","","","","null","key","null","null","16.655000000000776","684","384.75","2","0","1","1","1","","",""
"","psychophysics","382","920929","0.0-2.0-0.116","ynb","[""R""]","","","","","","4448","key","z","z","16.656220779220902","684","384.75","1","1","0","1","1","true","",""
"","psychophysics","383","921937","0.0-2.0-1.116","ynb","[""R""]","","","","","","null","key","null","null","16.654999999998836","684","384.75","1","1","0","1","1","","",""
"","psychophysics","384","922956","0.0-2.0-2.116-0.116","ynb","[""R""]","","","","","","null","key","null","null","16.655000000000776","684","384.75","1","1","0","1","1","","",""
"","psychophysics","385","924463","0.0-2.0-0.117","ynb","[""R""]","","","","","","803","key","m","m","16.65500000000047","684","384.75","2","1","0","1","1","true","",""
"","psychophysics","386","925471","0.0-2.0-1.117","ynb","[""R""]","","","","","","null","key","null","null","16.654999999998836","684","384.75","2","1","0","1","1","","",""
"","psychophysics","387","926478","0.0-2.0-2.117-0.117","ynb","[""R""]","","","","","","null","key","null","null","18.547566037737095","684","384.75","2","1","0","1","1","","",""
"","psychophysics","388","932725","0.0-2.0-0.118","ynb","[""R""]","","","","","","5546","key","z","z","16.655000000000236","684","384.75","1","0","1","1","0","true","",""
"","psychophysics","389","933738","0.0-2.0-1.118","ynb","[""R""]","","","","","","null","key","null","null","16.655000000000776","684","384.75","1","0","1","1","0","","",""
"","psychophysics","390","934747","0.0-2.0-2.118-0.118","ynb","[""R""]","","","","","","null","key","null","null","16.654999999998836","684","384.75","1","0","1","1","0","","",""
"","psychophysics","391","936664","0.0-2.0-0.119","ynb","[""R""]","","","","","","1216","key","z","z","16.65830701754404","684","384.75","2","0","1","0","1","false","",""
"","psychophysics","392","937670","0.0-2.0-1.119","ynb","[""R""]","","","","","","null","key","null","null","16.655000000000317","684","384.75","2","0","1","0","1","","",""
"","psychophysics","393","938692","0.0-2.0-3.119-0.119","ynb","[""R""]","","","","","","null","key","null","null","16.65500000000122","684","384.75","2","0","1","0","1","","",""
"","psychophysics","394","953349","0.0-2.0-0.120","ynb","[""R""]","","","","","","13954","key","z","z","16.69345433789956","684","384.75","1","0","0","0","1","true","",""
"","psychophysics","395","954356","0.0-2.0-1.120","ynb","[""R""]","","","","","","null","key","null","null","16.93728813559401","684","384.75","1","0","0","0","1","","",""
"","psychophysics","396","955371","0.0-2.0-2.120-0.120","ynb","[""R""]","","","","","","null","key","null","null","16.655000000000776","684","384.75","1","0","0","0","1","","",""
"","psychophysics","397","973030","0.0-2.0-0.121","ynb","[""R""]","","","","","","16957","key","m","m","16.65571077504723","684","384.75","2","0","1","1","1","true","",""
"","psychophysics","398","974035","0.0-2.0-1.121","ynb","[""R""]","","","","","","null","key","null","null","16.654999999998836","684","384.75","2","0","1","1","1","","",""
"","psychophysics","399","975039","0.0-2.0-2.121-0.121","ynb","[""R""]","","","","","","null","key","null","null","16.655000000000317","684","384.75","2","0","1","1","1","","",""
"","psychophysics","400","977619","0.0-2.0-0.122","ynb","[""R""]","","","","","","1876","key","m","m","16.657448051948638","684","384.75","2","0","1","0","1","true","",""
"","psychophysics","401","978625","0.0-2.0-1.122","ynb","[""R""]","","","","","","null","key","null","null","16.655000000000317","684","384.75","2","0","1","0","1","","",""
"","psychophysics","402","979632","0.0-2.0-2.122-0.122","ynb","[""R""]","","","","","","null","key","null","null","16.655000000000776","684","384.75","2","0","1","0","1","","",""
"","psychophysics","403","981532","0.0-2.0-0.123","ynb","[""R""]","","","","","","1197","key","z","z","16.655000000000122","684","384.75","1","0","0","1","1","true","",""
"","psychophysics","404","982538","0.0-2.0-1.123","ynb","[""R""]","","","","","","null","key","null","null","16.655000000000317","684","384.75","1","0","0","1","1","","",""
"","psychophysics","405","983544","0.0-2.0-2.123-0.123","ynb","[""R""]","","","","","","null","key","null","null","17.84464285714161","684","384.75","1","0","0","1","1","","",""
"","psychophysics","406","985145","0.0-2.0-0.124","ynb","[""R""]","","","","","","899","key","z","z","16.654999999999756","684","384.75","2","0","0","0","0","false","",""
"","psychophysics","407","986150","0.0-2.0-1.124","ynb","[""R""]","","","","","","null","key","null","null","16.655000000000317","684","384.75","2","0","0","0","0","","",""
"","psychophysics","408","987157","0.0-2.0-3.124-0.124","ynb","[""R""]","","","","","","null","key","null","null","16.661266666666293","684","384.75","2","0","0","0","0","","",""
"","psychophysics","409","990927","0.0-2.0-0.125","ynb","[""R""]","","","","","","3066","key","m","m","16.655","684","384.75","2","1","0","1","1","true","",""
"","psychophysics","410","991937","0.0-2.0-1.125","ynb","[""R""]","","","","","","null","key","null","null","16.655000000000776","684","384.75","2","1","0","1","1","","",""
"","psychophysics","411","992944","0.0-2.0-2.125-0.125","ynb","[""R""]","","","","","","null","key","null","null","16.655000000000317","684","384.75","2","1","0","1","1","","",""
"","psychophysics","412","997248","0.0-2.0-0.126","ynb","[""R""]","","","","","","3538","key","m","m","16.9923024193549","684","384.75","2","1","1","0","1","true","",""
"","psychophysics","413","998255","0.0-2.0-1.126","ynb","[""R""]","","","","","","null","key","null","null","17.229310344828388","684","384.75","2","1","1","0","1","","",""
"","psychophysics","414","999266","0.0-2.0-2.126-0.126","ynb","[""R""]","","","","","","null","key","null","null","16.655000000000776","684","384.75","2","1","1","0","1","","",""
"","psychophysics","415","1001832","0.0-2.0-0.127","ynb","[""R""]","","","","","","1865","key","z","z","16.654999999999813","684","384.75","1","0","1","1","1","true","",""
"","psychophysics","416","1002840","0.0-2.0-1.127","ynb","[""R""]","","","","","","null","key","null","null","16.932583333332634","684","384.75","1","0","1","1","1","","",""
"","psychophysics","417","1003846","0.0-2.0-2.127-0.127","ynb","[""R""]","","","","","","null","key","null","null","19.777812499999225","684","384.75","1","0","1","1","1","","",""
"","psychophysics","418","1005586","0.0-2.0-0.128","ynb","[""R""]","","","","","","1029","key","m","m","16.654999999999685","684","384.75","1","0","1","0","1","false","",""
"","psychophysics","419","1006606","0.0-2.0-1.128","ynb","[""R""]","","","","","","null","key","null","null","16.654999999998836","684","384.75","1","0","1","0","1","","",""
"","psychophysics","420","1007610","0.0-2.0-3.128-0.128","ynb","[""R""]","","","","","","null","key","null","null","16.655000000000317","684","384.75","1","0","1","0","1","","",""
"","psychophysics","421","1010636","0.0-2.0-0.129","ynb","[""R""]","","","","","","2323","key","z","z","16.841089385475147","684","384.75","1","1","1","1","1","true","",""
"","psychophysics","422","1011643","0.0-2.0-1.129","ynb","[""R""]","","","","","","null","key","null","null","16.655000000000317","684","384.75","1","1","1","1","1","","",""
"","psychophysics","423","1012649","0.0-2.0-2.129-0.129","ynb","[""R""]","","","","","","null","key","null","null","16.654999999998836","684","384.75","1","1","1","1","1","","",""
"","psychophysics","424","1015285","0.0-2.0-0.130","ynb","[""R""]","","","","","","1933","key","z","z","16.655000000000328","684","384.75","2","0","0","1","1","false","",""
"","psychophysics","425","1016290","0.0-2.0-1.130","ynb","[""R""]","","","","","","null","key","null","null","16.654999999998836","684","384.75","2","0","0","1","1","","",""
"","psychophysics","426","1017297","0.0-2.0-3.130-0.130","ynb","[""R""]","","","","","","null","key","null","null","16.661283333333753","684","384.75","2","0","0","1","1","","",""
"","psychophysics","427","1019792","0.0-2.0-0.131","ynb","[""R""]","","","","","","1792","key","m","m","24.89098901098983","684","384.75","2","0","0","1","1","true","",""
"","psychophysics","428","1020870","0.0-2.0-1.131","ynb","[""R""]","","","","","","null","key","null","null","24.258369565217595","684","384.75","2","0","0","1","1","","",""
"","psychophysics","429","1021885","0.0-2.0-2.131-0.131","ynb","[""R""]","","","","","","null","key","null","null","18.813981481482863","684","384.75","2","0","0","1","1","","",""
"","psychophysics","430","1024103","0.0-2.0-0.132","ynb","[""R""]","","","","","","1515","key","m","m","17.73825203252074","684","384.75","2","0","1","1","0","true","",""
"","psychophysics","431","1025117","0.0-2.0-1.132","ynb","[""R""]","","","","","","null","key","null","null","22.711363636362048","684","384.75","2","0","1","1","0","","",""
"","psychophysics","432","1026128","0.0-2.0-2.132-0.132","ynb","[""R""]","","","","","","null","key","null","null","19.319799999999812","684","384.75","2","0","1","1","0","","",""
"","psychophysics","433","1028828","0.0-2.0-0.133","ynb","[""R""]","","","","","","1998","key","z","z","17.998865771811335","684","384.75","2","0","1","1","0","false","",""
"","psychophysics","434","1029833","0.0-2.0-1.133","ynb","[""R""]","","","","","","null","key","null","null","18.505555555556416","684","384.75","2","0","1","1","0","","",""
"","psychophysics","435","1030870","0.0-2.0-3.133-0.133","ynb","[""R""]","","","","","","null","key","null","null","17.21957627118573","684","384.75","2","0","1","1","0","","",""
"","psychophysics","436","1033472","0.0-2.0-0.134","ynb","[""R""]","","","","","","1901","key","z","z","16.872712418300807","684","384.75","1","1","0","1","0","true","",""
"","psychophysics","437","1034484","0.0-2.0-1.134","ynb","[""R""]","","","","","","null","key","null","null","17.84464285714369","684","384.75","1","1","0","1","0","","",""
"","psychophysics","438","1035526","0.0-2.0-2.134-0.134","ynb","[""R""]","","","","","","null","key","null","null","22.999761904761684","684","384.75","1","1","0","1","0","","",""
"","psychophysics","439","1037303","0.0-2.0-0.135","ynb","[""R""]","","","","","","1054","key","z","z","19.805122222222337","684","384.75","2","0","1","0","1","false","",""
"","psychophysics","440","1038307","0.0-2.0-1.135","ynb","[""R""]","","","","","","null","key","null","null","16.655000000000317","684","384.75","2","0","1","0","1","","",""
"","psychophysics","441","1039367","0.0-2.0-3.135-0.135","ynb","[""R""]","","","","","","null","key","null","null","17.210166666666435","684","384.75","2","0","1","0","1","","",""
"","psychophysics","442","1044884","0.0-2.0-0.136","ynb","[""R""]","","","","","","4815","key","m","m","17.726061093247377","684","384.75","2","1","1","1","1","true","",""
"","psychophysics","443","1045888","0.0-2.0-1.136","ynb","[""R""]","","","","","","null","key","null","null","16.655000000000317","684","384.75","2","1","1","1","1","","",""
"","psychophysics","444","1046894","0.0-2.0-2.136-0.136","ynb","[""R""]","","","","","","null","key","null","null","16.661266666666293","684","384.75","2","1","1","1","1","","",""
"","psychophysics","445","1051915","0.0-2.0-0.137","ynb","[""R""]","","","","","","4319","key","m","m","16.655","684","384.75","2","0","0","1","1","true","",""
"","psychophysics","446","1052923","0.0-2.0-1.137","ynb","[""R""]","","","","","","null","key","null","null","16.655000000000776","684","384.75","2","0","0","1","1","","",""
"","psychophysics","447","1053931","0.0-2.0-2.137-0.137","ynb","[""R""]","","","","","","null","key","null","null","16.942155172414115","684","384.75","2","0","0","1","1","","",""
"","psychophysics","448","1055632","0.0-2.0-0.138","ynb","[""R""]","","","","","","995","key","m","m","16.65500000000028","684","384.75","2","1","0","1","1","true","",""
"","psychophysics","449","1056640","0.0-2.0-1.138","ynb","[""R""]","","","","","","null","key","null","null","16.655000000000776","684","384.75","2","1","0","1","1","","",""
"","psychophysics","450","1057645","0.0-2.0-2.138-0.138","ynb","[""R""]","","","","","","null","key","null","null","16.66137288135508","684","384.75","2","1","0","1","1","","",""
"","psychophysics","451","1060568","0.0-2.0-0.139","ynb","[""R""]","","","","","","2217","key","m","m","17.14485294117647","684","384.75","2","0","1","1","1","true","",""
"","psychophysics","452","1061574","0.0-2.0-1.139","ynb","[""R""]","","","","","","null","key","null","null","25.196025641026118","684","384.75","2","0","1","1","1","","",""
"","psychophysics","453","1062582","0.0-2.0-2.139-0.139","ynb","[""R""]","","","","","","null","key","null","null","18.54047169811356","684","384.75","2","0","1","1","1","","",""
"","psychophysics","454","1063945","0.0-2.0-0.140","ynb","[""R""]","","","","","","660","key","m","m","17.750723684212733","684","384.75","2","0","0","1","1","true","",""
"","psychophysics","455","1064949","0.0-2.0-1.140","ynb","[""R""]","","","","","","null","key","null","null","16.655000000000776","684","384.75","2","0","0","1","1","","",""
"","psychophysics","456","1065972","0.0-2.0-2.140-0.140","ynb","[""R""]","","","","","","null","key","null","null","16.655000000000776","684","384.75","2","0","0","1","1","","",""
"","psychophysics","457","1069453","0.0-2.0-0.141","ynb","[""R""]","","","","","","2777","key","m","m","16.656807692307318","684","384.75","2","1","0","1","0","true","",""
"","psychophysics","458","1070460","0.0-2.0-1.141","ynb","[""R""]","","","","","","null","key","null","null","16.655000000000776","684","384.75","2","1","0","1","0","","",""
"","psychophysics","459","1071467","0.0-2.0-2.141-0.141","ynb","[""R""]","","","","","","null","key","null","null","16.655000000000317","684","384.75","2","1","0","1","0","","",""
"","psychophysics","460","1072597","0.0-2.0-0.142","ynb","[""R""]","","","","","","420","key","z","z","16.65500000000014","684","384.75","2","0","0","1","1","false","",""
"","psychophysics","461","1073607","0.0-2.0-1.142","ynb","[""R""]","","","","","","null","key","null","null","16.655000000000776","684","384.75","2","0","0","1","1","","",""
"","psychophysics","462","1074626","0.0-2.0-3.142-0.142","ynb","[""R""]","","","","","","null","key","null","null","16.655000000000776","684","384.75","2","0","0","1","1","","",""
"","psychophysics","463","1075975","0.0-2.0-0.143","ynb","[""R""]","","","","","","645","key","m","m","16.654999999998836","684","384.75","2","1","1","1","1","true","",""
"","psychophysics","464","1076991","0.0-2.0-1.143","ynb","[""R""]","","","","","","null","key","null","null","16.661283333331813","684","384.75","2","1","1","1","1","","",""
"","psychophysics","465","1077998","0.0-2.0-2.143-0.143","ynb","[""R""]","","","","","","null","key","null","null","16.942155172414115","684","384.75","2","1","1","1","1","","",""
"","psychophysics","466","1079636","0.0-2.0-0.144","ynb","[""R""]","","","","","","934","key","z","z","16.65499999999943","684","384.75","1","0","0","1","1","true","",""
"","psychophysics","467","1080652","0.0-2.0-1.144","ynb","[""R""]","","","","","","null","key","null","null","16.655000000000776","684","384.75","1","0","0","1","1","","",""
"","psychophysics","468","1081659","0.0-2.0-2.144-0.144","ynb","[""R""]","","","","","","null","key","null","null","16.655000000000317","684","384.75","1","0","0","1","1","","",""
"","psychophysics","469","1083507","0.0-2.0-0.145","ynb","[""R""]","","","","","","1140","key","m","m","17.448095238093465","684","384.75","1","1","1","0","1","false","",""
"","psychophysics","470","1084516","0.0-2.0-1.145","ynb","[""R""]","","","","","","null","key","null","null","16.655000000000776","684","384.75","1","1","1","0","1","","",""
"","psychophysics","471","1085523","0.0-2.0-3.145-0.145","ynb","[""R""]","","","","","","null","key","null","null","16.655000000000317","684","384.75","1","1","1","0","1","","",""
"","psychophysics","472","1086939","0.0-2.0-0.146","ynb","[""R""]","","","","","","707","key","m","m","16.65947619047559","684","384.75","2","0","0","1","1","true","",""
"","psychophysics","473","1087948","0.0-2.0-1.146","ynb","[""R""]","","","","","","null","key","null","null","16.655000000000776","684","384.75","2","0","0","1","1","","",""
"","psychophysics","474","1088971","0.0-2.0-2.146-0.146","ynb","[""R""]","","","","","","null","key","null","null","16.654999999996896","684","384.75","2","0","0","1","1","","",""
"","psychophysics","475","1090747","0.0-2.0-0.147","ynb","[""R""]","","","","","","1059","key","m","m","16.655000000001582","684","384.75","2","1","1","1","1","true","",""
"","psychophysics","476","1091751","0.0-2.0-1.147","ynb","[""R""]","","","","","","null","key","null","null","16.655000000000317","684","384.75","2","1","1","1","1","","",""
"","psychophysics","477","1092762","0.0-2.0-2.147-0.147","ynb","[""R""]","","","","","","null","key","null","null","16.655000000000776","684","384.75","2","1","1","1","1","","",""
"","psychophysics","478","1093900","0.0-2.0-0.148","ynb","[""R""]","","","","","","437","key","m","m","16.65500000000014","684","384.75","1","0","1","1","1","false","",""
"","psychophysics","479","1094915","0.0-2.0-1.148","ynb","[""R""]","","","","","","null","key","null","null","16.655000000000776","684","384.75","1","0","1","1","1","","",""
"","psychophysics","480","1095941","0.0-2.0-3.148-0.148","ynb","[""R""]","","","","","","null","key","null","null","16.65500000000122","684","384.75","1","0","1","1","1","","",""
"","psychophysics","481","1098690","0.0-2.0-0.149","ynb","[""R""]","","","","","","2046","key","m","m","17.181106918239557","684","384.75","2","1","1","1","1","true","",""
"","psychophysics","482","1099695","0.0-2.0-1.149","ynb","[""R""]","","","","","","null","key","null","null","16.655000000000317","684","384.75","2","1","1","1","1","","",""
"","psychophysics","483","1100706","0.0-2.0-2.149-0.149","ynb","[""R""]","","","","","","null","key","null","null","16.655000000000776","684","384.75","2","1","1","1","1","","",""
"","psychophysics","484","1102562","0.0-2.0-0.150","ynb","[""R""]","","","","","","1135","key","z","z","16.655000000000424","684","384.75","1","1","1","1","1","true","",""
"","psychophysics","485","1103570","0.0-2.0-1.150","ynb","[""R""]","","","","","","null","key","null","null","16.654999999996896","684","384.75","1","1","1","1","1","","",""
"","psychophysics","486","1104576","0.0-2.0-2.150-0.150","ynb","[""R""]","","","","","","null","key","null","null","16.655000000000317","684","384.75","1","1","1","1","1","","",""
"","psychophysics","487","1107085","0.0-2.0-0.151","ynb","[""R""]","","","","","","1806","key","m","m","16.769302013422354","684","384.75","1","0","0","1","0","false","",""
"","psychophysics","488","1108090","0.0-2.0-1.151","ynb","[""R""]","","","","","","null","key","null","null","16.655000000000317","684","384.75","1","0","0","1","0","","",""
"","psychophysics","489","1109098","0.0-2.0-3.151-0.151","ynb","[""R""]","","","","","","null","key","null","null","16.655000000000776","684","384.75","1","0","0","1","0","","",""
"","psychophysics","490","1112339","0.0-2.0-0.152","ynb","[""R""]","","","","","","2539","key","m","m","16.655000000000193","684","384.75","1","0","0","0","0","false","",""
"","psychophysics","491","1113346","0.0-2.0-1.152","ynb","[""R""]","","","","","","null","key","null","null","16.655000000000776","684","384.75","1","0","0","0","0","","",""
"","psychophysics","492","1114353","0.0-2.0-3.152-0.152","ynb","[""R""]","","","","","","null","key","null","null","16.655000000000317","684","384.75","1","0","0","0","0","","",""
"","psychophysics","493","1116002","0.0-2.0-0.153","ynb","[""R""]","","","","","","943","key","m","m","16.65499999999943","684","384.75","2","1","1","0","1","true","",""
"","psychophysics","494","1117014","0.0-2.0-1.153","ynb","[""R""]","","","","","","null","key","null","null","17.851392857144155","684","384.75","2","1","1","0","1","","",""
"","psychophysics","495","1118019","0.0-2.0-2.153-0.153","ynb","[""R""]","","","","","","null","key","null","null","16.655000000000317","684","384.75","2","1","1","0","1","","",""
"","psychophysics","496","1121373","0.0-2.0-0.154","ynb","[""R""]","","","","","","2650","key","m","m","16.65500000000014","684","384.75","2","0","0","0","0","true","",""
"","psychophysics","497","1122379","0.0-2.0-1.154","ynb","[""R""]","","","","","","null","key","null","null","16.655000000000317","684","384.75","2","0","0","0","0","","",""
"","psychophysics","498","1123390","0.0-2.0-2.154-0.154","ynb","[""R""]","","","","","","null","key","null","null","16.655000000000776","684","384.75","2","0","0","0","0","","",""
"","psychophysics","499","1124587","0.0-2.0-0.155","ynb","[""R""]","","","","","","495","key","z","z","16.654999999998427","684","384.75","2","1","1","1","1","false","",""
"","psychophysics","500","1125592","0.0-2.0-1.155","ynb","[""R""]","","","","","","null","key","null","null","16.655000000000317","684","384.75","2","1","1","1","1","","",""
"","psychophysics","501","1126599","0.0-2.0-3.155-0.155","ynb","[""R""]","","","","","","null","key","null","null","16.655000000000776","684","384.75","2","1","1","1","1","","",""
"","psychophysics","502","1128321","0.0-2.0-0.156","ynb","[""R""]","","","","","","1019","key","z","z","16.65869607843057","684","384.75","1","1","0","1","1","true","",""
"","psychophysics","503","1129327","0.0-2.0-1.156","ynb","[""R""]","","","","","","null","key","null","null","16.655000000000317","684","384.75","1","1","0","1","1","","",""
"","psychophysics","504","1130367","0.0-2.0-2.156-0.156","ynb","[""R""]","","","","","","null","key","null","null","18.197129629625664","684","384.75","1","1","0","1","1","","",""
"","psychophysics","505","1132688","0.0-2.0-0.157","ynb","[""R""]","","","","","","1614","key","m","m","17.67209923664065","684","384.75","1","1","1","1","0","false","",""
"","psychophysics","506","1133699","0.0-2.0-1.157","ynb","[""R""]","","","","","","null","key","null","null","16.655000000000776","684","384.75","1","1","1","1","0","","",""
"","psychophysics","507","1134706","0.0-2.0-3.157-0.157","ynb","[""R""]","","","","","","null","key","null","null","16.655000000000317","684","384.75","1","1","1","1","0","","",""
"","psychophysics","508","1136567","0.0-2.0-0.158","ynb","[""R""]","","","","","","1150","key","z","z","16.806409090907653","684","384.75","2","0","0","0","0","false","",""
"","psychophysics","509","1137575","0.0-2.0-1.158","ynb","[""R""]","","","","","","null","key","null","null","16.661266666666293","684","384.75","2","0","0","0","0","","",""
"","psychophysics","510","1138580","0.0-2.0-3.158-0.158","ynb","[""R""]","","","","","","null","key","null","null","16.655000000000317","684","384.75","2","0","0","0","0","","",""
"","psychophysics","511","1140599","0.0-2.0-0.159","ynb","[""R""]","","","","","","1317","key","m","m","16.655000000000776","684","384.75","1","0","1","0","1","false","",""
"","psychophysics","512","1141608","0.0-2.0-1.159","ynb","[""R""]","","","","","","null","key","null","null","16.654999999996896","684","384.75","1","0","1","0","1","","",""
"","psychophysics","513","1142613","0.0-2.0-3.159-0.159","ynb","[""R""]","","","","","","null","key","null","null","16.655000000000317","684","384.75","1","0","1","0","1","","",""
"","psychophysics","514","1144162","0.0-2.0-0.160","ynb","[""R""]","","","","","","847","key","m","m","16.6550000000001","684","384.75","2","1","1","1","1","true","",""
"","psychophysics","515","1145167","0.0-2.0-1.160","ynb","[""R""]","","","","","","null","key","null","null","16.655000000000317","684","384.75","2","1","1","1","1","","",""
"","psychophysics","516","1146174","0.0-2.0-2.160-0.160","ynb","[""R""]","","","","","","null","key","null","null","16.655000000000776","684","384.75","2","1","1","1","1","","",""
"","psychophysics","517","1147723","0.0-2.0-0.161","ynb","[""R""]","","","","","","846","key","z","z","16.659131868133464","684","384.75","1","0","1","1","1","true","",""
"","psychophysics","518","1148731","0.0-2.0-1.161","ynb","[""R""]","","","","","","null","key","null","null","16.654999999996896","684","384.75","1","0","1","1","1","","",""
"","psychophysics","519","1149737","0.0-2.0-2.161-0.161","ynb","[""R""]","","","","","","null","key","null","null","16.655000000000776","684","384.75","1","0","1","1","1","","",""
"","psychophysics","520","1151055","0.0-2.0-0.162","ynb","[""R""]","","","","","","615","key","m","m","16.655000000001074","684","384.75","2","0","1","1","0","true","",""
"","psychophysics","521","1152062","0.0-2.0-1.162","ynb","[""R""]","","","","","","null","key","null","null","16.65499999999637","684","384.75","2","0","1","1","0","","",""
"","psychophysics","522","1153069","0.0-2.0-2.162-0.162","ynb","[""R""]","","","","","","null","key","null","null","16.655000000000776","684","384.75","2","0","1","1","0","","",""
"","psychophysics","523","1155469","0.0-2.0-0.163","ynb","[""R""]","","","","","","1696","key","z","z","17.384416058394432","684","384.75","1","0","1","1","1","true","",""
"","psychophysics","524","1156478","0.0-2.0-1.163","ynb","[""R""]","","","","","","null","key","null","null","16.655000000000776","684","384.75","1","0","1","1","1","","",""
"","psychophysics","525","1157485","0.0-2.0-2.163-0.163","ynb","[""R""]","","","","","","null","key","null","null","16.661372881359025","684","384.75","1","0","1","1","1","","",""
"","psychophysics","526","1159265","0.0-2.0-0.164","ynb","[""R""]","","","","","","1078","key","z","z","16.654999999999387","684","384.75","1","1","0","1","1","true","",""
"","psychophysics","527","1160271","0.0-2.0-1.164","ynb","[""R""]","","","","","","null","key","null","null","16.655000000000317","684","384.75","1","1","0","1","1","","",""
"","psychophysics","528","1161278","0.0-2.0-2.164-0.164","ynb","[""R""]","","","","","","null","key","null","null","16.655000000000776","684","384.75","1","1","0","1","1","","",""
"","psychophysics","529","1163110","0.0-2.0-0.165","ynb","[""R""]","","","","","","1130","key","z","z","16.654999999999912","684","384.75","1","1","1","1","1","true","",""
"","psychophysics","530","1164116","0.0-2.0-1.165","ynb","[""R""]","","","","","","null","key","null","null","16.655000000000776","684","384.75","1","1","1","1","1","","",""
"","psychophysics","531","1165126","0.0-2.0-2.165-0.165","ynb","[""R""]","","","","","","null","key","null","null","16.655000000000776","684","384.75","1","1","1","1","1","","",""
"","psychophysics","532","1168726","0.0-2.0-0.166","ynb","[""R""]","","","","","","2897","key","m","m","16.656753488372317","684","384.75","1","0","0","0","0","false","",""
"","psychophysics","533","1169731","0.0-2.0-1.166","ynb","[""R""]","","","","","","null","key","null","null","16.655000000000317","684","384.75","1","0","0","0","0","","",""
"","psychophysics","534","1170739","0.0-2.0-3.166-0.166","ynb","[""R""]","","","","","","null","key","null","null","16.655000000000776","684","384.75","1","0","0","0","0","","",""
"","psychophysics","535","1171752","0.0-2.0-0.167","ynb","[""R""]","","","","","","309","key","z","z","16.655000000000317","684","384.75","2","0","1","0","1","false","",""
"","psychophysics","536","1172759","0.0-2.0-1.167","ynb","[""R""]","","","","","","null","key","null","null","16.655000000000776","684","384.75","2","0","1","0","1","","",""
"","psychophysics","537","1173767","0.0-2.0-3.167-0.167","ynb","[""R""]","","","","","","null","key","null","null","18.505555555556416","684","384.75","2","0","1","0","1","","",""
"","psychophysics","538","1175554","0.0-2.0-0.168","ynb","[""R""]","","","","","","1084","key","m","m","16.654999999999387","684","384.75","2","0","1","1","1","true","",""
"","psychophysics","539","1176560","0.0-2.0-1.168","ynb","[""R""]","","","","","","null","key","null","null","16.655000000000317","684","384.75","2","0","1","1","1","","",""
"","psychophysics","540","1177569","0.0-2.0-2.168-0.168","ynb","[""R""]","","","","","","null","key","null","null","16.661266666666293","684","384.75","2","0","1","1","1","","",""
"","psychophysics","541","1179140","0.0-2.0-0.169","ynb","[""R""]","","","","","","868","key","m","m","16.6550000000004","684","384.75","1","0","1","0","1","false","",""
"","psychophysics","542","1180150","0.0-2.0-1.169","ynb","[""R""]","","","","","","null","key","null","null","16.655000000000776","684","384.75","1","0","1","0","1","","",""
"","psychophysics","543","1181156","0.0-2.0-3.169-0.169","ynb","[""R""]","","","","","","null","key","null","null","16.655000000000317","684","384.75","1","0","1","0","1","","",""
"","psychophysics","544","1197860","0.0-2.0-0.170","ynb","[""R""]","","","","","","15999","key","m","m","19.116514318442093","684","384.75","1","0","1","0","1","false","",""
"","psychophysics","545","1198872","0.0-2.0-1.170","ynb","[""R""]","","","","","","null","key","null","null","17.235862068964394","684","384.75","1","0","1","0","1","","",""
"","psychophysics","546","1199888","0.0-2.0-3.170-0.170","ynb","[""R""]","","","","","","null","key","null","null","17.229310344828388","684","384.75","1","0","1","0","1","","",""
"","psychophysics","547","1200908","0.0-2.0-0.171","ynb","[""R""]","","","","","","317","key","z","z","16.655000000000776","684","384.75","2","0","1","1","1","false","",""
"","psychophysics","548","1201915","0.0-2.0-1.171","ynb","[""R""]","","","","","","null","key","null","null","16.654999999996896","684","384.75","2","0","1","1","1","","",""
"","psychophysics","549","1202934","0.0-2.0-3.171-0.171","ynb","[""R""]","","","","","","null","key","null","null","16.655000000000776","684","384.75","2","0","1","1","1","","",""
"","psychophysics","550","1203646","0.0-2.0-0.172","ynb","[""R""]","","","","","","10","key","m","m","17.06121951219535","684","384.75","1","0","0","1","1","false","",""
"","psychophysics","551","1204661","0.0-2.0-1.172","ynb","[""R""]","","","","","","null","key","null","null","16.655000000000776","684","384.75","1","0","0","1","1","","",""
"","psychophysics","552","1205666","0.0-2.0-3.172-0.172","ynb","[""R""]","","","","","","null","key","null","null","16.655000000000317","684","384.75","1","0","0","1","1","","",""
"","psychophysics","553","1207381","0.0-2.0-0.173","ynb","[""R""]","","","","","","1012","key","z","z","16.65500000000055","684","384.75","2","1","1","1","0","false","",""
"","psychophysics","554","1208387","0.0-2.0-1.173","ynb","[""R""]","","","","","","null","key","null","null","16.661389830506455","684","384.75","2","1","1","1","0","","",""
"","psychophysics","555","1209403","0.0-2.0-3.173-0.173","ynb","[""R""]","","","","","","null","key","null","null","16.655000000000776","684","384.75","2","1","1","1","0","","",""
"","psychophysics","556","1211431","0.0-2.0-0.174","ynb","[""R""]","","","","","","1324","key","m","m","16.654999999999077","684","384.75","1","1","1","0","1","false","",""
"","psychophysics","557","1212442","0.0-2.0-1.174","ynb","[""R""]","","","","","","null","key","null","null","16.655000000000776","684","384.75","1","1","1","0","1","","",""
"","psychophysics","558","1213456","0.0-2.0-3.174-0.174","ynb","[""R""]","","","","","","null","key","null","null","16.655000000000776","684","384.75","1","1","1","0","1","","",""
"","psychophysics","559","1218077","0.0-2.0-0.175","ynb","[""R""]","","","","","","3918","key","z","z","16.715563636363736","684","384.75","1","1","0","0","0","true","",""
"","psychophysics","560","1219091","0.0-2.0-1.175","ynb","[""R""]","","","","","","null","key","null","null","16.661266666666293","684","384.75","1","1","0","0","0","","",""
"","psychophysics","561","1220097","0.0-2.0-2.175-0.175","ynb","[""R""]","","","","","","null","key","null","null","16.655000000000317","684","384.75","1","1","0","0","0","","",""
"","psychophysics","562","1221154","0.0-2.0-0.176","ynb","[""R""]","","","","","","354","key","z","z","16.655000000001653","684","384.75","1","1","1","1","1","true","",""
"","psychophysics","563","1222160","0.0-2.0-1.176","ynb","[""R""]","","","","","","null","key","null","null","16.654999999996896","684","384.75","1","1","1","1","1","","",""
"","psychophysics","564","1223170","0.0-2.0-2.176-0.176","ynb","[""R""]","","","","","","null","key","null","null","16.655000000000776","684","384.75","1","1","1","1","1","","",""
"","psychophysics","565","1224373","0.0-2.0-0.177","ynb","[""R""]","","","","","","500","key","m","m","16.65500000000133","684","384.75","2","1","1","1","1","true","",""
"","psychophysics","566","1225388","0.0-2.0-1.177","ynb","[""R""]","","","","","","null","key","null","null","16.932583333334573","684","384.75","2","1","1","1","1","","",""
"","psychophysics","567","1226402","0.0-2.0-2.177-0.177","ynb","[""R""]","","","","","","null","key","null","null","16.655000000000776","684","384.75","2","1","1","1","1","","",""
"","psychophysics","568","1229182","0.0-2.0-0.178","ynb","[""R""]","","","","","","2075","key","z","z","16.657265060240437","684","384.75","2","1","0","0","0","false","",""
