"success","trial_type","trial_index","time_elapsed","internal_node_id","subject","condition","timeout","failed_images","failed_audio","failed_video","view_history","rt","response_type","key_press","response","avg_frame_time","center_x","center_y","outcome","p1conf","p2conf","p1rslt","p2rslt","correct","stimulus","question_order"
"true","fullscreen","0","2869","0.0-0.0-0.0","ht1","[""R""]","","","","","","","","","","","","","","","","","","","",""
"true","preload","1","2874","0.0-0.0-1.0","ht1","[""R""]","false","[]","[]","[]","","","","","","","","","","","","","","","",""
"","instructions","2","134240","0.0-1.0","ht1","[""R""]","","","","","[{""page_index"":0,""viewing_time"":97956},{""page_index"":1,""viewing_time"":17400},{""page_index"":2,""viewing_time"":16008}]","131364","","","","","","","","","","","","","",""
"","psychophysics","3","139577","0.0-2.0-0.0","ht1","[""R""]","","","","","","4621","key","z","z","16.685626959247728","740.5","416.5","2","1","0","1","1","false","",""
"","psychophysics","4","140583","0.0-2.0-1.0","ht1","[""R""]","","","","","","null","key","null","null","16.68666666666686","740.5","416.5","2","1","0","1","1","","",""
"","psychophysics","5","141595","0.0-2.0-3.0-0.0","ht1","[""R""]","","","","","","null","key","null","null","16.686203389830585","740.5","416.5","2","1","0","1","1","","",""
"","psychophysics","6","148490","0.0-2.0-0.1","ht1","[""R""]","","","","","","6186","key","z","z","16.686007281553422","740.5","416.5","2","1","0","1","0","false","",""
"","psychophysics","7","149498","0.0-2.0-1.1","ht1","[""R""]","","","","","","null","key","null","null","16.687283333333713","740.5","416.5","2","1","0","1","0","","",""
"","psychophysics","8","150508","0.0-2.0-3.1-0.1","ht1","[""R""]","","","","","","null","key","null","null","16.68684745762671","740.5","416.5","2","1","0","1","0","","",""
"","psychophysics","9","154168","0.0-2.0-0.2","ht1","[""R""]","","","","","","2955","key","z","z","16.685876712328877","740.5","416.5","2","1","0","1","0","false","",""
"","psychophysics","10","155176","0.0-2.0-1.2","ht1","[""R""]","","","","","","null","key","null","null","16.68567796610197","740.5","416.5","2","1","0","1","0","","",""
"","psychophysics","11","156186","0.0-2.0-3.2-0.2","ht1","[""R""]","","","","","","null","key","null","null","16.687149999999868","740.5","416.5","2","1","0","1","0","","",""
"","psychophysics","12","163721","0.0-2.0-0.3","ht1","[""R""]","","","","","","6830","key","m","m","16.685862222222237","740.5","416.5","2","0","1","1","1","true","",""
"","psychophysics","13","164729","0.0-2.0-1.3","ht1","[""R""]","","","","","","null","key","null","null","16.68723333333328","740.5","416.5","2","0","1","1","1","","",""
"","psychophysics","14","165738","0.0-2.0-2.3-0.3","ht1","[""R""]","","","","","","null","key","null","null","16.68594915254221","740.5","416.5","2","0","1","1","1","","",""
"","psychophysics","15","172856","0.0-2.0-0.4","ht1","[""R""]","","","","","","6413","key","z","z","16.685830985915537","740.5","416.5","2","1","1","1","0","false","",""
"","psychophysics","16","173864","0.0-2.0-1.4","ht1","[""R""]","","","","","","null","key","null","null","16.6854237288136","740.5","416.5","2","1","1","1","0","","",""
"","psychophysics","17","174875","0.0-2.0-3.4-0.4","ht1","[""R""]","","","","","","null","key","null","null","16.687200000000303","740.5","416.5","2","1","1","1","0","","",""
"","psychophysics","18","180841","0.0-2.0-0.5","ht1","[""R""]","","","","","","5262","key","m","m","16.68589606741574","740.5","416.5","2","1","1","1","0","true","",""
"","psychophysics","19","181850","0.0-2.0-1.5","ht1","[""R""]","","","","","","null","key","null","null","16.686666666666376","740.5","416.5","2","1","1","1","0","","",""
"","psychophysics","20","182858","0.0-2.0-2.5-0.5","ht1","[""R""]","","","","","","null","key","null","null","16.685745762711907","740.5","416.5","2","1","1","1","0","","",""
"","psychophysics","21","187433","0.0-2.0-0.6","ht1","[""R""]","","","","","","3871","key","m","m","16.686117216117207","740.5","416.5","2","1","0","1","1","true","",""
"","psychophysics","22","188441","0.0-2.0-1.6","ht1","[""R""]","","","","","","null","key","null","null","16.687199999999816","740.5","416.5","2","1","0","1","1","","",""
"","psychophysics","23","189451","0.0-2.0-2.6-0.6","ht1","[""R""]","","","","","","null","key","null","null","16.687220338983085","740.5","416.5","2","1","0","1","1","","",""
"","psychophysics","24","194488","0.0-2.0-0.7","ht1","[""R""]","","","","","","4330","key","z","z","16.686049833887104","740.5","416.5","1","0","0","1","1","true","",""
"","psychophysics","25","195493","0.0-2.0-1.7","ht1","[""R""]","","","","","","null","key","null","null","16.687372881355813","740.5","416.5","1","0","0","1","1","","",""
"","psychophysics","26","196502","0.0-2.0-2.7-0.7","ht1","[""R""]","","","","","","null","key","null","null","16.685999999999574","740.5","416.5","1","0","0","1","1","","",""
"","psychophysics","27","201705","0.0-2.0-0.8","ht1","[""R""]","","","","","","4499","key","m","m","16.68601286173635","740.5","416.5","2","0","1","1","1","true","",""
"","psychophysics","28","202714","0.0-2.0-1.8","ht1","[""R""]","","","","","","null","key","null","null","16.68591525423749","740.5","416.5","2","0","1","1","1","","",""
"","psychophysics","29","203723","0.0-2.0-2.8-0.8","ht1","[""R""]","","","","","","null","key","null","null","16.68723333333328","740.5","416.5","2","0","1","1","1","","",""
"","psychophysics","30","209464","0.0-2.0-0.9","ht1","[""R""]","","","","","","5038","key","z","z","16.685883381924203","740.5","416.5","1","0","1","1","1","true","",""
"","psychophysics","31","210471","0.0-2.0-1.9","ht1","[""R""]","","","","","","null","key","null","null","16.68600000000028","740.5","416.5","1","0","1","1","1","","",""
"","psychophysics","32","211482","0.0-2.0-2.9-0.9","ht1","[""R""]","","","","","","null","key","null","null","16.686649999999887","740.5","416.5","1","0","1","1","1","","",""
"","psychophysics","33","216505","0.0-2.0-0.10","ht1","[""R""]","","","","","","4319","key","m","m","16.685929999999935","740.5","416.5","2","0","0","1","1","true","",""
"","psychophysics","34","217512","0.0-2.0-1.10","ht1","[""R""]","","","","","","null","key","null","null","16.686898305084778","740.5","416.5","2","0","0","1","1","","",""
"","psychophysics","35","218523","0.0-2.0-2.10-0.10","ht1","[""R""]","","","","","","null","key","null","null","16.686416666667114","740.5","416.5","2","0","0","1","1","","",""
"","psychophysics","36","223769","0.0-2.0-0.11","ht1","[""R""]","","","","","","4541","key","m","m","16.685651757188488","740.5","416.5","2","0","0","1","0","true","",""
"","psychophysics","37","224776","0.0-2.0-1.11","ht1","[""R""]","","","","","","null","key","null","null","16.6872542372883","740.5","416.5","2","0","0","1","0","","",""
"","psychophysics","38","225785","0.0-2.0-2.11-0.11","ht1","[""R""]","","","","","","null","key","null","null","16.68626666666678","740.5","416.5","2","0","0","1","0","","",""
"","psychophysics","39","230312","0.0-2.0-0.12","ht1","[""R""]","","","","","","3823","key","m","m","16.68612962962954","740.5","416.5","2","1","0","1","1","true","",""
"","psychophysics","40","231321","0.0-2.0-1.12","ht1","[""R""]","","","","","","null","key","null","null","16.68703333333348","740.5","416.5","2","1","0","1","1","","",""
"","psychophysics","41","232330","0.0-2.0-2.12-0.12","ht1","[""R""]","","","","","","null","key","null","null","16.687322033898237","740.5","416.5","2","1","0","1","1","","",""
"","psychophysics","42","234984","0.0-2.0-0.13","ht1","[""R""]","","","","","","1950","key","m","m","16.686202531645467","740.5","416.5","2","1","1","1","1","true","",""
"","psychophysics","43","235993","0.0-2.0-1.13","ht1","[""R""]","","","","","","null","key","null","null","16.68654999999999","740.5","416.5","2","1","1","1","1","","",""
"","psychophysics","44","237002","0.0-2.0-2.13-0.13","ht1","[""R""]","","","","","","null","key","null","null","16.68600000000028","740.5","416.5","2","1","1","1","1","","",""
"","psychophysics","45","240088","0.0-2.0-0.14","ht1","[""R""]","","","","","","2381","key","m","m","16.6862500000001","740.5","416.5","2","0","1","1","1","true","",""
"","psychophysics","46","241095","0.0-2.0-1.14","ht1","[""R""]","","","","","","null","key","null","null","16.686644067796404","740.5","416.5","2","0","1","1","1","","",""
"","psychophysics","47","242107","0.0-2.0-2.14-0.14","ht1","[""R""]","","","","","","null","key","null","null","16.68595000000011","740.5","416.5","2","0","1","1","1","","",""
"","psychophysics","48","245928","0.0-2.0-0.15","ht1","[""R""]","","","","","","3118","key","m","m","16.686114035087755","740.5","416.5","2","1","1","1","1","true","",""
"","psychophysics","49","246939","0.0-2.0-1.15","ht1","[""R""]","","","","","","null","key","null","null","16.686816666666708","740.5","416.5","2","1","1","1","1","","",""
"","psychophysics","50","247947","0.0-2.0-2.15-0.15","ht1","[""R""]","","","","","","null","key","null","null","16.68716949152551","740.5","416.5","2","1","1","1","1","","",""
"","psychophysics","51","250952","0.0-2.0-0.16","ht1","[""R""]","","","","","","2301","key","m","m","16.686089385474848","740.5","416.5","2","1","1","1","1","true","",""
"","psychophysics","52","251961","0.0-2.0-1.16","ht1","[""R""]","","","","","","null","key","null","null","16.68718333333333","740.5","416.5","2","1","1","1","1","","",""
"","psychophysics","53","252970","0.0-2.0-2.16-0.16","ht1","[""R""]","","","","","","null","key","null","null","16.685779661017122","740.5","416.5","2","1","1","1","1","","",""
"","psychophysics","54","255688","0.0-2.0-0.17","ht1","[""R""]","","","","","","2013","key","z","z","16.686271604938312","740.5","416.5","2","0","0","0","1","false","",""
"","psychophysics","55","256695","0.0-2.0-1.17","ht1","[""R""]","","","","","","null","key","null","null","16.68698305084757","740.5","416.5","2","0","0","0","1","","",""
"","psychophysics","56","257705","0.0-2.0-3.17-0.17","ht1","[""R""]","","","","","","null","key","null","null","16.68676666666676","740.5","416.5","2","0","0","0","1","","",""
"","psychophysics","57","262184","0.0-2.0-0.18","ht1","[""R""]","","","","","","3776","key","z","z","16.685999999999932","740.5","416.5","1","1","1","1","1","true","",""
"","psychophysics","58","263194","0.0-2.0-1.18","ht1","[""R""]","","","","","","null","key","null","null","16.687166666666357","740.5","416.5","1","1","1","1","1","","",""
"","psychophysics","59","264202","0.0-2.0-2.18-0.18","ht1","[""R""]","","","","","","null","key","null","null","16.68688135593143","740.5","416.5","1","1","1","1","1","","",""
"","psychophysics","60","267752","0.0-2.0-0.19","ht1","[""R""]","","","","","","2842","key","m","m","16.684915094339576","740.5","416.5","2","0","1","0","1","true","",""
"","psychophysics","61","268759","0.0-2.0-1.19","ht1","[""R""]","","","","","","null","key","null","null","16.686593220339322","740.5","416.5","2","0","1","0","1","","",""
"","psychophysics","62","269769","0.0-2.0-2.19-0.19","ht1","[""R""]","","","","","","null","key","null","null","16.68695000000007","740.5","416.5","2","0","1","0","1","","",""
"","psychophysics","63","272072","0.0-2.0-0.20","ht1","[""R""]","","","","","","1600","key","z","z","16.685489051094972","740.5","416.5","1","1","0","1","1","true","",""
"","psychophysics","64","273079","0.0-2.0-1.20","ht1","[""R""]","","","","","","null","key","null","null","16.686016949153135","740.5","416.5","1","1","0","1","1","","",""
"","psychophysics","65","274088","0.0-2.0-2.20-0.20","ht1","[""R""]","","","","","","null","key","null","null","16.68595000000011","740.5","416.5","1","1","0","1","1","","",""
"","psychophysics","66","278696","0.0-2.0-0.21","ht1","[""R""]","","","","","","3904","key","m","m","16.68614909090927","740.5","416.5","2","1","0","1","1","true","",""
"","psychophysics","67","279703","0.0-2.0-1.21","ht1","[""R""]","","","","","","null","key","null","null","16.686372881355673","740.5","416.5","2","1","0","1","1","","",""
"","psychophysics","68","280712","0.0-2.0-2.21-0.21","ht1","[""R""]","","","","","","null","key","null","null","16.686916666667095","740.5","416.5","2","1","0","1","1","","",""
"","psychophysics","69","283560","0.0-2.0-0.22","ht1","[""R""]","","","","","","2144","key","m","m","16.68578698224844","740.5","416.5","1","0","0","0","1","false","",""
"","psychophysics","70","284568","0.0-2.0-1.22","ht1","[""R""]","","","","","","null","key","null","null","16.682316666665916","740.5","416.5","1","0","0","0","1","","",""
"","psychophysics","71","285576","0.0-2.0-3.22-0.22","ht1","[""R""]","","","","","","null","key","null","null","16.685033898305353","740.5","416.5","1","0","0","0","1","","",""
"","psychophysics","72","289080","0.0-2.0-0.23","ht1","[""R""]","","","","","","2795","key","z","z","16.685956937799","740.5","416.5","2","1","0","0","1","false","",""
"","psychophysics","73","290089","0.0-2.0-1.23","ht1","[""R""]","","","","","","null","key","null","null","16.687149999999868","740.5","416.5","2","1","0","0","1","","",""
"","psychophysics","74","291098","0.0-2.0-3.23-0.23","ht1","[""R""]","","","","","","null","key","null","null","16.685644067796265","740.5","416.5","2","1","0","0","1","","",""
"","psychophysics","75","294568","0.0-2.0-0.24","ht1","[""R""]","","","","","","2766","key","z","z","16.686149758454086","740.5","416.5","1","1","0","1","0","true","",""
"","psychophysics","76","295578","0.0-2.0-1.24","ht1","[""R""]","","","","","","null","key","null","null","16.686616666666428","740.5","416.5","1","1","0","1","0","","",""
"","psychophysics","77","296586","0.0-2.0-2.24-0.24","ht1","[""R""]","","","","","","null","key","null","null","16.685644067796265","740.5","416.5","1","1","0","1","0","","",""
"","psychophysics","78","298776","0.0-2.0-0.25","ht1","[""R""]","","","","","","1485","key","m","m","16.686484615384746","740.5","416.5","2","1","1","1","1","true","",""
"","psychophysics","79","299784","0.0-2.0-1.25","ht1","[""R""]","","","","","","null","key","null","null","16.68768333333331","740.5","416.5","2","1","1","1","1","","",""
"","psychophysics","80","300793","0.0-2.0-2.25-0.25","ht1","[""R""]","","","","","","null","key","null","null","16.686118644068287","740.5","416.5","2","1","1","1","1","","",""
"","psychophysics","81","302888","0.0-2.0-0.26","ht1","[""R""]","","","","","","1391","key","m","m","16.685768000000156","740.5","416.5","2","1","1","1","1","true","",""
"","psychophysics","82","303895","0.0-2.0-1.26","ht1","[""R""]","","","","","","null","key","null","null","16.68550847457639","740.5","416.5","2","1","1","1","1","","",""
"","psychophysics","83","304906","0.0-2.0-2.26-0.26","ht1","[""R""]","","","","","","null","key","null","null","16.68703333333348","740.5","416.5","2","1","1","1","1","","",""
"","psychophysics","84","306744","0.0-2.0-0.27","ht1","[""R""]","","","","","","1134","key","z","z","16.686752293578248","740.5","416.5","2","1","1","0","0","false","",""
"","psychophysics","85","307750","0.0-2.0-1.27","ht1","[""R""]","","","","","","null","key","null","null","16.686372881355673","740.5","416.5","2","1","1","0","0","","",""
"","psychophysics","86","308760","0.0-2.0-3.27-0.27","ht1","[""R""]","","","","","","null","key","null","null","16.687166666666357","740.5","416.5","2","1","1","0","0","","",""
"","psychophysics","87","311832","0.0-2.0-0.28","ht1","[""R""]","","","","","","2367","key","m","m","16.685857923497203","740.5","416.5","2","1","1","1","1","true","",""
"","psychophysics","88","312838","0.0-2.0-1.28","ht1","[""R""]","","","","","","null","key","null","null","16.68616949152537","740.5","416.5","2","1","1","1","1","","",""
"","psychophysics","89","313849","0.0-2.0-2.28-0.28","ht1","[""R""]","","","","","","null","key","null","null","16.687166666666357","740.5","416.5","2","1","1","1","1","","",""
"","psychophysics","90","316504","0.0-2.0-0.29","ht1","[""R""]","","","","","","1950","key","m","m","16.686386075949507","740.5","416.5","2","1","1","1","1","true","",""
"","psychophysics","91","317511","0.0-2.0-1.29","ht1","[""R""]","","","","","","null","key","null","null","16.686135593220648","740.5","416.5","2","1","1","1","1","","",""
"","psychophysics","92","318521","0.0-2.0-2.29-0.29","ht1","[""R""]","","","","","","null","key","null","null","16.687216666666792","740.5","416.5","2","1","1","1","1","","",""
"","psychophysics","93","323656","0.0-2.0-0.30","ht1","[""R""]","","","","","","4430","key","z","z","16.686176470588144","740.5","416.5","1","1","1","1","1","true","",""
"","psychophysics","94","324663","0.0-2.0-1.30","ht1","[""R""]","","","","","","null","key","null","null","16.68531666666677","740.5","416.5","1","1","1","1","1","","",""
"","psychophysics","95","325668","0.0-2.0-2.30-0.30","ht1","[""R""]","","","","","","null","key","null","null","16.68715254237315","740.5","416.5","1","1","1","1","1","","",""
"","psychophysics","96","328233","0.0-2.0-0.31","ht1","[""R""]","","","","","","1861","key","m","m","16.68655555555559","740.5","416.5","1","1","0","0","0","false","",""
"","psychophysics","97","329242","0.0-2.0-1.31","ht1","[""R""]","","","","","","null","key","null","null","16.68571186440669","740.5","416.5","1","1","0","0","0","","",""
"","psychophysics","98","330253","0.0-2.0-3.31-0.31","ht1","[""R""]","","","","","","null","key","null","null","16.686983333333046","740.5","416.5","1","1","0","0","0","","",""
"","psychophysics","99","333159","0.0-2.0-0.32","ht1","[""R""]","","","","","","2202","key","m","m","16.68597687861271","740.5","416.5","1","1","0","0","1","false","",""
"","psychophysics","100","334166","0.0-2.0-1.32","ht1","[""R""]","","","","","","null","key","null","null","16.68625423728816","740.5","416.5","1","1","0","0","1","","",""
"","psychophysics","101","335176","0.0-2.0-3.32-0.32","ht1","[""R""]","","","","","","null","key","null","null","16.686916666666125","740.5","416.5","1","1","0","0","1","","",""
"","psychophysics","102","343175","0.0-2.0-0.33","ht1","[""R""]","","","","","","7296","key","m","m","16.685966527196637","740.5","416.5","1","0","0","1","0","false","",""
"","psychophysics","103","344184","0.0-2.0-1.33","ht1","[""R""]","","","","","","null","key","null","null","16.686250000000776","740.5","416.5","1","0","0","1","0","","",""
"","psychophysics","104","345193","0.0-2.0-3.33-0.33","ht1","[""R""]","","","","","","null","key","null","null","16.68459322033805","740.5","416.5","1","0","0","1","0","","",""
"","psychophysics","105","351176","0.0-2.0-0.34","ht1","[""R""]","","","","","","5278","key","m","m","16.686033519553007","740.5","416.5","2","0","0","1","0","true","",""
"","psychophysics","106","352183","0.0-2.0-1.34","ht1","[""R""]","","","","","","null","key","null","null","16.68476271186462","740.5","416.5","2","0","0","1","0","","",""
"","psychophysics","107","353194","0.0-2.0-2.34-0.34","ht1","[""R""]","","","","","","null","key","null","null","16.686483333332582","740.5","416.5","2","0","0","1","0","","",""
"","psychophysics","108","359975","0.0-2.0-0.35","ht1","[""R""]","","","","","","6078","key","z","z","16.68613580246916","740.5","416.5","1","0","0","0","1","true","",""
"","psychophysics","109","360986","0.0-2.0-1.35","ht1","[""R""]","","","","","","null","key","null","null","16.687049999999967","740.5","416.5","1","0","0","0","1","","",""
"","psychophysics","110","361995","0.0-2.0-2.35-0.35","ht1","[""R""]","","","","","","null","key","null","null","16.68706779661036","740.5","416.5","1","0","0","0","1","","",""
"","psychophysics","111","365383","0.0-2.0-0.36","ht1","[""R""]","","","","","","2684","key","m","m","16.686222772277077","740.5","416.5","2","0","1","1","1","true","",""
"","psychophysics","112","366392","0.0-2.0-1.36","ht1","[""R""]","","","","","","null","key","null","null","16.6875","740.5","416.5","2","0","1","1","1","","",""
"","psychophysics","113","367401","0.0-2.0-2.36-0.36","ht1","[""R""]","","","","","","null","key","null","null","16.685559322033473","740.5","416.5","2","0","1","1","1","","",""
"","psychophysics","114","371175","0.0-2.0-0.37","ht1","[""R""]","","","","","","3070","key","z","z","16.68619111111103","740.5","416.5","1","0","1","0","1","true","",""
"","psychophysics","115","372183","0.0-2.0-1.37","ht1","[""R""]","","","","","","null","key","null","null","16.68638333333365","740.5","416.5","1","0","1","0","1","","",""
"","psychophysics","116","373191","0.0-2.0-2.37-0.37","ht1","[""R""]","","","","","","null","key","null","null","16.686050847457857","740.5","416.5","1","0","1","0","1","","",""
"","psychophysics","117","378135","0.0-2.0-0.38","ht1","[""R""]","","","","","","4241","key","m","m","16.686081355932302","740.5","416.5","1","1","0","0","1","false","",""
"","psychophysics","118","379142","0.0-2.0-1.38","ht1","[""R""]","","","","","","null","key","null","null","16.686883333333146","740.5","416.5","1","1","0","0","1","","",""
"","psychophysics","119","380151","0.0-2.0-3.38-0.38","ht1","[""R""]","","","","","","null","key","null","null","16.6862372881358","740.5","416.5","1","1","0","0","1","","",""
"","psychophysics","120","382551","0.0-2.0-0.39","ht1","[""R""]","","","","","","1696","key","z","z","16.68639160839147","740.5","416.5","1","0","1","1","1","true","",""
"","psychophysics","121","383559","0.0-2.0-1.39","ht1","[""R""]","","","","","","null","key","null","null","16.687355932203452","740.5","416.5","1","0","1","1","1","","",""
"","psychophysics","122","384568","0.0-2.0-2.39-0.39","ht1","[""R""]","","","","","","null","key","null","null","16.685966666667568","740.5","416.5","1","0","1","1","1","","",""
"","psychophysics","123","388007","0.0-2.0-0.40","ht1","[""R""]","","","","","","2736","key","m","m","16.685951219512173","740.5","416.5","1","0","0","1","0","false","",""
"","psychophysics","124","389015","0.0-2.0-1.40","ht1","[""R""]","","","","","","null","key","null","null","16.68620338983009","740.5","416.5","1","0","0","1","0","","",""
"","psychophysics","125","390024","0.0-2.0-3.40-0.40","ht1","[""R""]","","","","","","null","key","null","null","16.685200000000382","740.5","416.5","1","0","0","1","0","","",""
"","psychophysics","126","393992","0.0-2.0-0.41","ht1","[""R""]","","","","","","3263","key","z","z","16.686084388185467","740.5","416.5","1","0","0","1","0","true","",""
"","psychophysics","127","394998","0.0-2.0-1.41","ht1","[""R""]","","","","","","null","key","null","null","16.686355932203313","740.5","416.5","1","0","0","1","0","","",""
"","psychophysics","128","396010","0.0-2.0-2.41-0.41","ht1","[""R""]","","","","","","null","key","null","null","16.686800000000705","740.5","416.5","1","0","0","1","0","","",""
"","psychophysics","129","404071","0.0-2.0-0.42","ht1","[""R""]","","","","","","7357","key","m","m","16.685931535269724","740.5","416.5","1","0","0","0","1","false","",""
"","psychophysics","130","405079","0.0-2.0-1.42","ht1","[""R""]","","","","","","null","key","null","null","16.686084745763566","740.5","416.5","1","0","0","0","1","","",""
"","psychophysics","131","406088","0.0-2.0-3.42-0.42","ht1","[""R""]","","","","","","null","key","null","null","16.68741666666659","740.5","416.5","1","0","0","0","1","","",""
"","psychophysics","132","412183","0.0-2.0-0.43","ht1","[""R""]","","","","","","5392","key","z","z","16.68580219780215","740.5","416.5","1","1","1","1","0","true","",""
"","psychophysics","133","413190","0.0-2.0-1.43","ht1","[""R""]","","","","","","null","key","null","null","16.685847457627553","740.5","416.5","1","1","1","1","0","","",""
"","psychophysics","134","414199","0.0-2.0-2.43-0.43","ht1","[""R""]","","","","","","null","key","null","null","16.686566666666963","740.5","416.5","1","1","1","1","0","","",""
"","psychophysics","135","416504","0.0-2.0-0.44","ht1","[""R""]","","","","","","1601","key","z","z","16.685927007299334","740.5","416.5","1","0","0","1","0","true","",""
"","psychophysics","136","417511","0.0-2.0-1.44","ht1","[""R""]","","","","","","null","key","null","null","16.685949152542705","740.5","416.5","1","0","0","1","0","","",""
"","psychophysics","137","418520","0.0-2.0-2.44-0.44","ht1","[""R""]","","","","","","null","key","null","null","16.6874000000001","740.5","416.5","1","0","0","1","0","","",""
"","psychophysics","138","421641","0.0-2.0-0.45","ht1","[""R""]","","","","","","2417","key","z","z","16.685881720429915","740.5","416.5","1","0","0","1","0","true","",""
"","psychophysics","139","422648","0.0-2.0-1.45","ht1","[""R""]","","","","","","null","key","null","null","16.686830508474348","740.5","416.5","1","0","0","1","0","","",""
"","psychophysics","140","423659","0.0-2.0-2.45-0.45","ht1","[""R""]","","","","","","null","key","null","null","16.685816666667233","740.5","416.5","1","0","0","1","0","","",""
"","psychophysics","141","429099","0.0-2.0-0.46","ht1","[""R""]","","","","","","4736","key","m","m","16.68564615384604","740.5","416.5","1","0","1","1","0","false","",""
"","psychophysics","142","430106","0.0-2.0-1.46","ht1","[""R""]","","","","","","null","key","null","null","16.686288135593866","740.5","416.5","1","0","1","1","0","","",""
"","psychophysics","143","431117","0.0-2.0-3.46-0.46","ht1","[""R""]","","","","","","null","key","null","null","16.686083333332984","740.5","416.5","1","0","1","1","0","","",""
"","psychophysics","144","436375","0.0-2.0-0.47","ht1","[""R""]","","","","","","4554","key","m","m","16.685831210190976","740.5","416.5","2","0","1","0","1","true","",""
"","psychophysics","145","437382","0.0-2.0-1.47","ht1","[""R""]","","","","","","null","key","null","null","16.686067796610217","740.5","416.5","2","0","1","0","1","","",""
"","psychophysics","146","438392","0.0-2.0-2.47-0.47","ht1","[""R""]","","","","","","null","key","null","null","16.68565000000041","740.5","416.5","2","0","1","0","1","","",""
"","psychophysics","147","441914","0.0-2.0-0.48","ht1","[""R""]","","","","","","2819","key","m","m","16.686066666666772","740.5","416.5","2","0","1","1","1","true","",""
"","psychophysics","148","442920","0.0-2.0-1.48","ht1","[""R""]","","","","","","null","key","null","null","16.68550847457639","740.5","416.5","2","0","1","1","1","","",""
"","psychophysics","149","443932","0.0-2.0-2.48-0.48","ht1","[""R""]","","","","","","null","key","null","null","16.687383333332644","740.5","416.5","2","0","1","1","1","","",""
"","psychophysics","150","445895","0.0-2.0-0.49","ht1","[""R""]","","","","","","1259","key","m","m","16.68606034482745","740.5","416.5","2","0","1","1","1","true","",""
"","psychophysics","151","446904","0.0-2.0-1.49","ht1","[""R""]","","","","","","null","key","null","null","16.686999999999536","740.5","416.5","2","0","1","1","1","","",""
"","psychophysics","152","447912","0.0-2.0-2.49-0.49","ht1","[""R""]","","","","","","null","key","null","null","16.686101694915926","740.5","416.5","2","0","1","1","1","","",""
"","psychophysics","153","449927","0.0-2.0-0.50","ht1","[""R""]","","","","","","1312","key","z","z","16.68668333333335","740.5","416.5","1","1","1","1","1","true","",""
"","psychophysics","154","450934","0.0-2.0-1.50","ht1","[""R""]","","","","","","null","key","null","null","16.6862372881358","740.5","416.5","1","1","1","1","1","","",""
"","psychophysics","155","451944","0.0-2.0-2.50-0.50","ht1","[""R""]","","","","","","null","key","null","null","16.686833333333684","740.5","416.5","1","1","1","1","1","","",""
"","psychophysics","156","454039","0.0-2.0-0.51","ht1","[""R""]","","","","","","1392","key","z","z","16.685435483870545","740.5","416.5","1","1","1","0","1","true","",""
"","psychophysics","157","455047","0.0-2.0-1.51","ht1","[""R""]","","","","","","null","key","null","null","16.687550000000435","740.5","416.5","1","1","1","0","1","","",""
"","psychophysics","158","456056","0.0-2.0-2.51-0.51","ht1","[""R""]","","","","","","null","key","null","null","16.68603389830451","740.5","416.5","1","1","1","0","1","","",""
"","psychophysics","159","458743","0.0-2.0-0.52","ht1","[""R""]","","","","","","1983","key","m","m","16.686349999999948","740.5","416.5","2","1","0","1","1","true","",""
"","psychophysics","160","459751","0.0-2.0-1.52","ht1","[""R""]","","","","","","null","key","null","null","16.686466666666092","740.5","416.5","2","1","0","1","1","","",""
"","psychophysics","161","460759","0.0-2.0-2.52-0.52","ht1","[""R""]","","","","","","null","key","null","null","16.686949152542848","740.5","416.5","2","1","0","1","1","","",""
"","psychophysics","162","463322","0.0-2.0-0.53","ht1","[""R""]","","","","","","1860","key","z","z","16.686150326797193","740.5","416.5","2","0","1","0","0","false","",""
"","psychophysics","163","464329","0.0-2.0-1.53","ht1","[""R""]","","","","","","null","key","null","null","16.686779661016278","740.5","416.5","2","0","1","0","0","","",""
"","psychophysics","164","465340","0.0-2.0-3.53-0.53","ht1","[""R""]","","","","","","null","key","null","null","16.687216666666792","740.5","416.5","2","0","1","0","0","","",""
"","psychophysics","165","469578","0.0-2.0-0.54","ht1","[""R""]","","","","","","3534","key","z","z","16.685802371541392","740.5","416.5","1","1","1","1","0","true","",""
"","psychophysics","166","470585","0.0-2.0-1.54","ht1","[""R""]","","","","","","null","key","null","null","16.68564406779725","740.5","416.5","1","1","1","1","0","","",""
"","psychophysics","167","471597","0.0-2.0-2.54-0.54","ht1","[""R""]","","","","","","null","key","null","null","16.685733333332852","740.5","416.5","1","1","1","1","0","","",""
"","psychophysics","168","473639","0.0-2.0-0.55","ht1","[""R""]","","","","","","1333","key","z","z","16.6861570247931","740.5","416.5","1","0","0","1","1","true","",""
"","psychophysics","169","474646","0.0-2.0-1.55","ht1","[""R""]","","","","","","null","key","null","null","16.687033898305636","740.5","416.5","1","0","0","1","1","","",""
"","psychophysics","170","475655","0.0-2.0-2.55-0.55","ht1","[""R""]","","","","","","null","key","null","null","16.687100000000402","740.5","416.5","1","0","0","1","1","","",""
"","psychophysics","171","478489","0.0-2.0-0.56","ht1","[""R""]","","","","","","2129","key","z","z","16.686023668639194","740.5","416.5","1","0","1","1","0","true","",""
"","psychophysics","172","479496","0.0-2.0-1.56","ht1","[""R""]","","","","","","null","key","null","null","16.685644067796265","740.5","416.5","1","0","1","1","0","","",""
"","psychophysics","173","480507","0.0-2.0-2.56-0.56","ht1","[""R""]","","","","","","null","key","null","null","16.68675000000027","740.5","416.5","1","0","1","1","0","","",""
"","psychophysics","174","482810","0.0-2.0-0.57","ht1","[""R""]","","","","","","1598","key","z","z","16.685240875912598","740.5","416.5","1","0","0","1","0","true","",""
"","psychophysics","175","483819","0.0-2.0-1.57","ht1","[""R""]","","","","","","null","key","null","null","16.685898305084635","740.5","416.5","1","0","0","1","0","","",""
"","psychophysics","176","484829","0.0-2.0-2.57-0.57","ht1","[""R""]","","","","","","null","key","null","null","16.68658333333345","740.5","416.5","1","0","0","1","0","","",""
"","psychophysics","177","487175","0.0-2.0-0.58","ht1","[""R""]","","","","","","1642","key","m","m","16.68598561151047","740.5","416.5","2","0","0","1","0","true","",""
"","psychophysics","178","488184","0.0-2.0-1.58","ht1","[""R""]","","","","","","null","key","null","null","16.687066666666457","740.5","416.5","2","0","0","1","0","","",""
"","psychophysics","179","489192","0.0-2.0-2.58-0.58","ht1","[""R""]","","","","","","null","key","null","null","16.686016949152148","740.5","416.5","2","0","0","1","0","","",""
"","psychophysics","180","490983","0.0-2.0-0.59","ht1","[""R""]","","","","","","1087","key","m","m","16.686528301886767","740.5","416.5","2","0","0","1","1","true","",""
"","psychophysics","181","491991","0.0-2.0-1.59","ht1","[""R""]","","","","","","null","key","null","null","16.686883333333146","740.5","416.5","2","0","0","1","1","","",""
"","psychophysics","182","492999","0.0-2.0-2.59-0.59","ht1","[""R""]","","","","","","null","key","null","null","16.68625423728816","740.5","416.5","2","0","0","1","1","","",""
"","psychophysics","183","494875","0.0-2.0-0.60","ht1","[""R""]","","","","","","1169","key","m","m","16.685910714286106","740.5","416.5","1","1","1","0","0","false","",""
"","psychophysics","184","495882","0.0-2.0-1.60","ht1","[""R""]","","","","","","null","key","null","null","16.687593220339465","740.5","416.5","1","1","1","0","0","","",""
"","psychophysics","185","496893","0.0-2.0-3.60-0.60","ht1","[""R""]","","","","","","null","key","null","null","16.687066666666457","740.5","416.5","1","1","1","0","0","","",""
"","psychophysics","186","500070","0.0-2.0-0.61","ht1","[""R""]","","","","","","2475","key","z","z","16.68578835978837","740.5","416.5","1","1","0","1","1","true","",""
"","psychophysics","187","501080","0.0-2.0-1.61","ht1","[""R""]","","","","","","null","key","null","null","16.68658333333345","740.5","416.5","1","1","0","1","1","","",""
"","psychophysics","188","502089","0.0-2.0-2.61-0.61","ht1","[""R""]","","","","","","null","key","null","null","16.686711864406835","740.5","416.5","1","1","0","1","1","","",""
"","psychophysics","189","504391","0.0-2.0-0.62","ht1","[""R""]","","","","","","1598","key","z","z","16.685737226277347","740.5","416.5","1","0","0","1","1","true","",""
"","psychophysics","190","505399","0.0-2.0-1.62","ht1","[""R""]","","","","","","null","key","null","null","16.687237288134956","740.5","416.5","1","0","0","1","1","","",""
"","psychophysics","191","506408","0.0-2.0-2.62-0.62","ht1","[""R""]","","","","","","null","key","null","null","16.686000000000544","740.5","416.5","1","0","0","1","1","","",""
"","psychophysics","192","508891","0.0-2.0-0.63","ht1","[""R""]","","","","","","1779","key","z","z","16.685668918918864","740.5","416.5","2","1","1","0","1","false","",""
"","psychophysics","193","509898","0.0-2.0-1.63","ht1","[""R""]","","","","","","null","key","null","null","16.686372881355673","740.5","416.5","2","1","1","0","1","","",""
"","psychophysics","194","510909","0.0-2.0-3.63-0.63","ht1","[""R""]","","","","","","null","key","null","null","16.68693333333261","740.5","416.5","2","1","1","0","1","","",""
"","psychophysics","195","513112","0.0-2.0-0.64","ht1","[""R""]","","","","","","1499","key","z","z","16.685679389312703","740.5","416.5","1","0","1","1","1","true","",""
"","psychophysics","196","514120","0.0-2.0-1.64","ht1","[""R""]","","","","","","null","key","null","null","16.685796610169483","740.5","416.5","1","0","1","1","1","","",""
"","psychophysics","197","515130","0.0-2.0-2.64-0.64","ht1","[""R""]","","","","","","null","key","null","null","16.68723333333328","740.5","416.5","1","0","1","1","1","","",""
"","psychophysics","198","519639","0.0-2.0-0.65","ht1","[""R""]","","","","","","3805","key","z","z","16.686029739776796","740.5","416.5","1","0","1","1","1","true","",""
"","psychophysics","199","520647","0.0-2.0-1.65","ht1","[""R""]","","","","","","null","key","null","null","16.68483050847505","740.5","416.5","1","0","1","1","1","","",""
"","psychophysics","200","521656","0.0-2.0-2.65-0.65","ht1","[""R""]","","","","","","null","key","null","null","16.686516666666527","740.5","416.5","1","0","1","1","1","","",""
"","psychophysics","201","524903","0.0-2.0-0.66","ht1","[""R""]","","","","","","2542","key","z","z","16.686015544041517","740.5","416.5","1","1","0","1","0","true","",""
"","psychophysics","202","525911","0.0-2.0-1.66","ht1","[""R""]","","","","","","null","key","null","null","16.686883333333146","740.5","416.5","1","1","0","1","0","","",""
"","psychophysics","203","526919","0.0-2.0-2.66-0.66","ht1","[""R""]","","","","","","null","key","null","null","16.686644067796404","740.5","416.5","1","1","0","1","0","","",""
"","psychophysics","204","530119","0.0-2.0-0.67","ht1","[""R""]","","","","","","2494","key","m","m","16.685937172774693","740.5","416.5","1","0","1","0","0","false","",""
"","psychophysics","205","531126","0.0-2.0-1.67","ht1","[""R""]","","","","","","null","key","null","null","16.686305084745243","740.5","416.5","1","0","1","0","0","","",""
"","psychophysics","206","532135","0.0-2.0-3.67-0.67","ht1","[""R""]","","","","","","null","key","null","null","16.687049999999967","740.5","416.5","1","0","1","0","0","","",""
"","psychophysics","207","534263","0.0-2.0-0.68","ht1","[""R""]","","","","","","1422","key","m","m","16.68576984126989","740.5","416.5","1","1","0","0","1","false","",""
"","psychophysics","208","535270","0.0-2.0-1.68","ht1","[""R""]","","","","","","null","key","null","null","16.687249999999768","740.5","416.5","1","1","0","0","1","","",""
"","psychophysics","209","536278","0.0-2.0-3.68-0.68","ht1","[""R""]","","","","","","null","key","null","null","16.687338983050104","740.5","416.5","1","1","0","0","1","","",""
"","psychophysics","210","540631","0.0-2.0-0.69","ht1","[""R""]","","","","","","3650","key","z","z","16.68593846153862","740.5","416.5","1","0","0","1","1","true","",""
"","psychophysics","211","541638","0.0-2.0-1.69","ht1","[""R""]","","","","","","null","key","null","null","16.685864406779913","740.5","416.5","1","0","0","1","1","","",""
"","psychophysics","212","542647","0.0-2.0-2.69-0.69","ht1","[""R""]","","","","","","null","key","null","null","16.68713333333338","740.5","416.5","1","0","0","1","1","","",""
"","psychophysics","213","547846","0.0-2.0-0.70","ht1","[""R""]","","","","","","4495","key","m","m","16.685887096774195","740.5","416.5","1","1","1","0","1","false","",""
"","psychophysics","214","548855","0.0-2.0-1.70","ht1","[""R""]","","","","","","null","key","null","null","16.68693333333358","740.5","416.5","1","1","1","0","1","","",""
"","psychophysics","215","549863","0.0-2.0-3.70-0.70","ht1","[""R""]","","","","","","null","key","null","null","16.686033898305496","740.5","416.5","1","1","1","0","1","","",""
"","psychophysics","216","551863","0.0-2.0-0.71","ht1","[""R""]","","","","","","1296","key","z","z","16.686478991597546","740.5","416.5","2","0","0","0","0","false","",""
"","psychophysics","217","552873","0.0-2.0-1.71","ht1","[""R""]","","","","","","null","key","null","null","16.686733333333784","740.5","416.5","2","0","0","0","0","","",""
"","psychophysics","218","553882","0.0-2.0-3.71-0.71","ht1","[""R""]","","","","","","null","key","null","null","16.685593220340166","740.5","416.5","2","0","0","0","0","","",""
"","psychophysics","219","558454","0.0-2.0-0.72","ht1","[""R""]","","","","","","3869","key","m","m","16.685846153846278","740.5","416.5","2","0","0","1","1","true","",""
"","psychophysics","220","559464","0.0-2.0-1.72","ht1","[""R""]","","","","","","null","key","null","null","16.68731666666766","740.5","416.5","2","0","0","1","1","","",""
"","psychophysics","221","560473","0.0-2.0-2.72-0.72","ht1","[""R""]","","","","","","null","key","null","null","16.685677966100986","740.5","416.5","2","0","0","1","1","","",""
"","psychophysics","222","567926","0.0-2.0-0.73","ht1","[""R""]","","","","","","6750","key","z","z","16.684775784753437","740.5","416.5","1","0","0","1","1","true","",""
"","psychophysics","223","568934","0.0-2.0-1.73","ht1","[""R""]","","","","","","null","key","null","null","16.6859999999988","740.5","416.5","1","0","0","1","1","","",""
"","psychophysics","224","569943","0.0-2.0-2.73-0.73","ht1","[""R""]","","","","","","null","key","null","null","16.687183333331873","740.5","416.5","1","0","0","1","1","","",""
"","psychophysics","225","572664","0.0-2.0-0.74","ht1","[""R""]","","","","","","2018","key","z","z","16.685919753086097","740.5","416.5","1","1","1","1","0","true","",""
"","psychophysics","226","573670","0.0-2.0-1.74","ht1","[""R""]","","","","","","null","key","null","null","16.6862372881358","740.5","416.5","1","1","1","1","0","","",""
"","psychophysics","227","574682","0.0-2.0-2.74-0.74","ht1","[""R""]","","","","","","null","key","null","null","16.6875","740.5","416.5","1","1","1","1","0","","",""
"","psychophysics","228","578154","0.0-2.0-0.75","ht1","[""R""]","","","","","","2768","key","z","z","16.685845410628446","740.5","416.5","2","1","1","1","0","false","",""
"","psychophysics","229","579161","0.0-2.0-1.75","ht1","[""R""]","","","","","","null","key","null","null","16.686203389829103","740.5","416.5","2","1","1","1","0","","",""
"","psychophysics","230","580171","0.0-2.0-3.75-0.75","ht1","[""R""]","","","","","","null","key","null","null","16.686916666668065","740.5","416.5","2","1","1","1","0","","",""
"","psychophysics","231","584278","0.0-2.0-0.76","ht1","[""R""]","","","","","","3404","key","m","m","16.685751020408482","740.5","416.5","1","0","1","1","1","false","",""
"","psychophysics","232","585286","0.0-2.0-1.76","ht1","[""R""]","","","","","","null","key","null","null","16.684491525423887","740.5","416.5","1","0","1","1","1","","",""
"","psychophysics","233","586296","0.0-2.0-3.76-0.76","ht1","[""R""]","","","","","","null","key","null","null","16.687116666665922","740.5","416.5","1","0","1","1","1","","",""
"","psychophysics","234","589450","0.0-2.0-0.77","ht1","[""R""]","","","","","","2450","key","z","z","16.685877659574196","740.5","416.5","2","0","1","1","1","false","",""
"","psychophysics","235","590458","0.0-2.0-1.77","ht1","[""R""]","","","","","","null","key","null","null","16.68566101694961","740.5","416.5","2","0","1","1","1","","",""
"","psychophysics","236","591468","0.0-2.0-3.77-0.77","ht1","[""R""]","","","","","","null","key","null","null","16.686716666668264","740.5","416.5","2","0","1","1","1","","",""
"","psychophysics","237","595078","0.0-2.0-0.78","ht1","[""R""]","","","","","","2907","key","z","z","16.685902325581043","740.5","416.5","2","0","1","0","0","false","",""
"","psychophysics","238","596085","0.0-2.0-1.78","ht1","[""R""]","","","","","","null","key","null","null","16.687288135592038","740.5","416.5","2","0","1","0","0","","",""
"","psychophysics","239","597095","0.0-2.0-3.78-0.78","ht1","[""R""]","","","","","","null","key","null","null","16.687116666665922","740.5","416.5","2","0","1","0","0","","",""
"","psychophysics","240","600312","0.0-2.0-0.79","ht1","[""R""]","","","","","","2513","key","m","m","16.686166666666395","740.5","416.5","1","1","0","0","1","false","",""
"","psychophysics","241","601320","0.0-2.0-1.79","ht1","[""R""]","","","","","","null","key","null","null","16.68605084745687","740.5","416.5","1","1","0","0","1","","",""
"","psychophysics","242","602330","0.0-2.0-3.79-0.79","ht1","[""R""]","","","","","","null","key","null","null","16.686449999998633","740.5","416.5","1","1","0","0","1","","",""
"","psychophysics","243","604634","0.0-2.0-0.80","ht1","[""R""]","","","","","","1601","key","m","m","16.686145985401303","740.5","416.5","2","0","1","1","1","true","",""
"","psychophysics","244","605642","0.0-2.0-1.80","ht1","[""R""]","","","","","","null","key","null","null","16.686711864407823","740.5","416.5","2","0","1","1","1","","",""
"","psychophysics","245","606652","0.0-2.0-2.80-0.80","ht1","[""R""]","","","","","","null","key","null","null","16.6875","740.5","416.5","2","0","1","1","1","","",""
"","psychophysics","246","608934","0.0-2.0-0.81","ht1","[""R""]","","","","","","1578","key","z","z","16.685703703703325","740.5","416.5","2","0","1","0","0","false","",""
"","psychophysics","247","609942","0.0-2.0-1.81","ht1","[""R""]","","","","","","null","key","null","null","16.687116666665922","740.5","416.5","2","0","1","0","0","","",""
"","psychophysics","248","610950","0.0-2.0-3.81-0.81","ht1","[""R""]","","","","","","null","key","null","null","16.68652542372889","740.5","416.5","2","0","1","0","0","","",""
"","psychophysics","249","612966","0.0-2.0-0.82","ht1","[""R""]","","","","","","1312","key","z","z","16.686516666666527","740.5","416.5","1","0","0","1","1","true","",""
"","psychophysics","250","613977","0.0-2.0-1.82","ht1","[""R""]","","","","","","null","key","null","null","16.68611666666499","740.5","416.5","1","0","0","1","1","","",""
"","psychophysics","251","614985","0.0-2.0-2.82-0.82","ht1","[""R""]","","","","","","null","key","null","null","16.68652542372889","740.5","416.5","1","0","0","1","1","","",""
"","psychophysics","252","617238","0.0-2.0-0.83","ht1","[""R""]","","","","","","1549","key","z","z","16.686328358208907","740.5","416.5","1","1","0","1","0","true","",""
"","psychophysics","253","618249","0.0-2.0-1.83","ht1","[""R""]","","","","","","null","key","null","null","16.686466666666092","740.5","416.5","1","1","0","1","0","","",""
"","psychophysics","254","619257","0.0-2.0-2.83-0.83","ht1","[""R""]","","","","","","null","key","null","null","16.6859999999988","740.5","416.5","1","1","0","1","0","","",""
"","psychophysics","255","622326","0.0-2.0-0.84","ht1","[""R""]","","","","","","2366","key","m","m","16.68621857923486","740.5","416.5","2","0","0","1","1","true","",""
"","psychophysics","256","623334","0.0-2.0-1.84","ht1","[""R""]","","","","","","null","key","null","null","16.687169491526497","740.5","416.5","2","0","0","1","1","","",""
"","psychophysics","257","624343","0.0-2.0-2.84-0.84","ht1","[""R""]","","","","","","null","key","null","null","16.68595000000011","740.5","416.5","2","0","0","1","1","","",""
"","psychophysics","258","626999","0.0-2.0-0.85","ht1","[""R""]","","","","","","1951","key","m","m","16.686018987341424","740.5","416.5","2","1","0","1","1","true","",""
"","psychophysics","259","628010","0.0-2.0-1.85","ht1","[""R""]","","","","","","null","key","null","null","16.68668333333335","740.5","416.5","2","1","0","1","1","","",""
"","psychophysics","260","629018","0.0-2.0-2.85-0.85","ht1","[""R""]","","","","","","null","key","null","null","16.68613559321966","740.5","416.5","2","1","0","1","1","","",""
"","psychophysics","261","631895","0.0-2.0-0.86","ht1","[""R""]","","","","","","2172","key","z","z","16.686140350876947","740.5","416.5","1","1","1","0","1","true","",""
"","psychophysics","262","632904","0.0-2.0-1.86","ht1","[""R""]","","","","","","null","key","null","null","16.687166666666357","740.5","416.5","1","1","1","0","1","","",""
"","psychophysics","263","633912","0.0-2.0-2.86-0.86","ht1","[""R""]","","","","","","null","key","null","null","16.687203389831218","740.5","416.5","1","1","1","0","1","","",""
"","psychophysics","264","636505","0.0-2.0-0.87","ht1","[""R""]","","","","","","1887","key","m","m","16.6863290322584","740.5","416.5","1","0","1","0","0","false","",""
"","psychophysics","265","637512","0.0-2.0-1.87","ht1","[""R""]","","","","","","null","key","null","null","16.686135593221632","740.5","416.5","1","0","1","0","0","","",""
"","psychophysics","266","638522","0.0-2.0-3.87-0.87","ht1","[""R""]","","","","","","null","key","null","null","16.687166666666357","740.5","416.5","1","0","1","0","0","","",""
"","psychophysics","267","642951","0.0-2.0-0.88","ht1","[""R""]","","","","","","3723","key","m","m","16.68605681818162","740.5","416.5","2","1","0","1","0","true","",""
"","psychophysics","268","643962","0.0-2.0-1.88","ht1","[""R""]","","","","","","null","key","null","null","16.68686666666763","740.5","416.5","2","1","0","1","0","","",""
"","psychophysics","269","644970","0.0-2.0-2.88-0.88","ht1","[""R""]","","","","","","null","key","null","null","16.685966101696053","740.5","416.5","2","1","0","1","0","","",""
"","psychophysics","270","651222","0.0-2.0-0.89","ht1","[""R""]","","","","","","5547","key","z","z","16.686034759358108","740.5","416.5","2","0","0","0","1","false","",""
"","psychophysics","271","652230","0.0-2.0-1.89","ht1","[""R""]","","","","","","null","key","null","null","16.686610169491683","740.5","416.5","2","0","0","0","1","","",""
"","psychophysics","272","653239","0.0-2.0-3.89-0.89","ht1","[""R""]","","","","","","null","key","null","null","16.686599999999938","740.5","416.5","2","0","0","0","1","","",""
"","psychophysics","273","656311","0.0-2.0-0.90","ht1","[""R""]","","","","","","2367","key","z","z","16.685830601092803","740.5","416.5","1","0","0","1","1","true","",""
"","psychophysics","274","657317","0.0-2.0-1.90","ht1","[""R""]","","","","","","null","key","null","null","16.685915254236008","740.5","416.5","1","0","0","1","1","","",""
"","psychophysics","275","658329","0.0-2.0-2.90-0.90","ht1","[""R""]","","","","","","null","key","null","null","16.686716666666324","740.5","416.5","1","0","0","1","1","","",""
"","psychophysics","276","660166","0.0-2.0-0.91","ht1","[""R""]","","","","","","1134","key","z","z","16.685908256880428","740.5","416.5","1","1","0","1","0","true","",""
"","psychophysics","277","661174","0.0-2.0-1.91","ht1","[""R""]","","","","","","null","key","null","null","16.686050847458844","740.5","416.5","1","1","0","1","0","","",""
"","psychophysics","278","662184","0.0-2.0-2.91-0.91","ht1","[""R""]","","","","","","null","key","null","null","16.687150000000837","740.5","416.5","1","1","0","1","0","","",""
"","psychophysics","279","664358","0.0-2.0-0.92","ht1","[""R""]","","","","","","1470","key","z","z","16.685999999999595","740.5","416.5","1","0","1","1","1","true","",""
"","psychophysics","280","665366","0.0-2.0-1.92","ht1","[""R""]","","","","","","null","key","null","null","16.68728813559401","740.5","416.5","1","0","1","1","1","","",""
"","psychophysics","281","666375","0.0-2.0-2.92-0.92","ht1","[""R""]","","","","","","null","key","null","null","16.68613333333245","740.5","416.5","1","0","1","1","1","","",""
"","psychophysics","282","669526","0.0-2.0-0.93","ht1","[""R""]","","","","","","2448","key","m","m","16.686478723404047","740.5","416.5","1","0","1","1","0","false","",""
"","psychophysics","283","670535","0.0-2.0-1.93","ht1","[""R""]","","","","","","null","key","null","null","16.686067796610217","740.5","416.5","1","0","1","1","0","","",""
"","psychophysics","284","671543","0.0-2.0-3.93-0.93","ht1","[""R""]","","","","","","null","key","null","null","16.687200000001273","740.5","416.5","1","0","1","1","0","","",""
"","psychophysics","285","674278","0.0-2.0-0.94","ht1","[""R""]","","","","","","2030","key","m","m","16.68469325153434","740.5","416.5","2","0","1","0","1","true","",""
"","psychophysics","286","675281","0.0-2.0-1.94","ht1","[""R""]","","","","","","null","key","null","null","16.68891525423841","740.5","416.5","2","0","1","0","1","","",""
"","psychophysics","287","676289","0.0-2.0-2.94-0.94","ht1","[""R""]","","","","","","null","key","null","null","16.68569491525433","740.5","416.5","2","0","1","0","1","","",""
"","psychophysics","288","680694","0.0-2.0-0.95","ht1","[""R""]","","","","","","3701","key","m","m","16.68586311787066","740.5","416.5","2","0","0","1","1","true","",""
"","psychophysics","289","681702","0.0-2.0-1.95","ht1","[""R""]","","","","","","null","key","null","null","16.686508474575547","740.5","416.5","2","0","0","1","1","","",""
"","psychophysics","290","682710","0.0-2.0-2.95-0.95","ht1","[""R""]","","","","","","null","key","null","null","16.684799999999814","740.5","416.5","2","0","0","1","1","","",""
"","psychophysics","291","685334","0.0-2.0-0.96","ht1","[""R""]","","","","","","1920","key","z","z","16.68632051282046","740.5","416.5","1","0","0","0","1","true","",""
"","psychophysics","292","686344","0.0-2.0-1.96","ht1","[""R""]","","","","","","null","key","null","null","16.687100000000402","740.5","416.5","1","0","0","0","1","","",""
"","psychophysics","293","687352","0.0-2.0-2.96-0.96","ht1","[""R""]","","","","","","null","key","null","null","16.685779661017122","740.5","416.5","1","0","0","0","1","","",""
"","psychophysics","294","689542","0.0-2.0-0.97","ht1","[""R""]","","","","","","1486","key","z","z","16.686253846154656","740.5","416.5","1","0","0","1","1","true","",""
"","psychophysics","295","690549","0.0-2.0-1.97","ht1","[""R""]","","","","","","null","key","null","null","16.687216666666792","740.5","416.5","1","0","0","1","1","","",""
"","psychophysics","296","691558","0.0-2.0-2.97-0.97","ht1","[""R""]","","","","","","null","key","null","null","16.685864406779913","740.5","416.5","1","0","0","1","1","","",""
"","psychophysics","297","695462","0.0-2.0-0.98","ht1","[""R""]","","","","","","3201","key","z","z","16.68616309012846","740.5","416.5","1","1","1","1","1","true","",""
"","psychophysics","298","696472","0.0-2.0-1.98","ht1","[""R""]","","","","","","null","key","null","null","16.68693333333358","740.5","416.5","1","1","1","1","1","","",""
"","psychophysics","299","697480","0.0-2.0-2.98-0.98","ht1","[""R""]","","","","","","null","key","null","null","16.686000000000774","740.5","416.5","1","1","1","1","1","","",""
"","psychophysics","300","709688","0.0-2.0-0.99","ht1","[""R""]","","","","","","11504","key","m","m","16.685946648426846","740.5","416.5","1","0","0","0","0","false","",""
"","psychophysics","301","710695","0.0-2.0-1.99","ht1","[""R""]","","","","","","null","key","null","null","16.68618644067773","740.5","416.5","1","0","0","0","0","","",""
"","psychophysics","302","711706","0.0-2.0-3.99-0.99","ht1","[""R""]","","","","","","null","key","null","null","16.6862166666678","740.5","416.5","1","0","0","0","0","","",""
"","html-keyboard-response","303","717078","0.0-2.0-4.99-0.99","ht1","[""R""]","","","","","","5367","","","g","","","","","","","","","","<p>You have finished block 1 of 5.<p>You correctly predicted 68% of the races.<p>On the next screen, you will be given a 30 second break. Press the <b>g</b> key to start your break.",""
"","html-keyboard-response","304","718080","0.0-2.0-4.99-1.99-0.99","ht1","[""R""]","","","","","","null","","","null","","","","","","","","","","<p>The experiment will resume in 30 seconds. ",""
"","html-keyboard-response","305","719084","0.0-2.0-4.99-1.99-1.99","ht1","[""R""]","","","","","","null","","","null","","","","","","","","","","<p>The experiment will resume in 29 seconds. ",""
"","html-keyboard-response","306","720086","0.0-2.0-4.99-1.99-2.99","ht1","[""R""]","","","","","","null","","","null","","","","","","","","","","<p>The experiment will resume in 28 seconds. ",""
"","html-keyboard-response","307","721089","0.0-2.0-4.99-1.99-3.99","ht1","[""R""]","","","","","","null","","","null","","","","","","","","","","<p>The experiment will resume in 27 seconds. ",""
"","html-keyboard-response","308","722090","0.0-2.0-4.99-1.99-4.99","ht1","[""R""]","","","","","","null","","","null","","","","","","","","","","<p>The experiment will resume in 26 seconds. ",""
"","html-keyboard-response","309","723093","0.0-2.0-4.99-1.99-5.99","ht1","[""R""]","","","","","","null","","","null","","","","","","","","","","<p>The experiment will resume in 25 seconds. ",""
"","html-keyboard-response","310","724095","0.0-2.0-4.99-1.99-6.99","ht1","[""R""]","","","","","","null","","","null","","","","","","","","","","<p>The experiment will resume in 24 seconds. ",""
"","html-keyboard-response","311","725097","0.0-2.0-4.99-1.99-7.99","ht1","[""R""]","","","","","","null","","","null","","","","","","","","","","<p>The experiment will resume in 23 seconds. ",""
"","html-keyboard-response","312","726099","0.0-2.0-4.99-1.99-8.99","ht1","[""R""]","","","","","","null","","","null","","","","","","","","","","<p>The experiment will resume in 22 seconds. ",""
"","html-keyboard-response","313","727101","0.0-2.0-4.99-1.99-9.99","ht1","[""R""]","","","","","","null","","","null","","","","","","","","","","<p>The experiment will resume in 21 seconds. ",""
"","html-keyboard-response","314","728104","0.0-2.0-4.99-1.99-10.99","ht1","[""R""]","","","","","","null","","","null","","","","","","","","","","<p>The experiment will resume in 20 seconds. ",""
"","html-keyboard-response","315","729105","0.0-2.0-4.99-1.99-11.99","ht1","[""R""]","","","","","","null","","","null","","","","","","","","","","<p>The experiment will resume in 19 seconds. ",""
"","html-keyboard-response","316","730107","0.0-2.0-4.99-1.99-12.99","ht1","[""R""]","","","","","","null","","","null","","","","","","","","","","<p>The experiment will resume in 18 seconds. ",""
"","html-keyboard-response","317","731109","0.0-2.0-4.99-1.99-13.99","ht1","[""R""]","","","","","","null","","","null","","","","","","","","","","<p>The experiment will resume in 17 seconds. ",""
"","html-keyboard-response","318","732110","0.0-2.0-4.99-1.99-14.99","ht1","[""R""]","","","","","","null","","","null","","","","","","","","","","<p>The experiment will resume in 16 seconds. ",""
"","html-keyboard-response","319","733112","0.0-2.0-4.99-1.99-15.99","ht1","[""R""]","","","","","","null","","","null","","","","","","","","","","<p>The experiment will resume in 15 seconds. ",""
"","html-keyboard-response","320","734114","0.0-2.0-4.99-1.99-16.99","ht1","[""R""]","","","","","","null","","","null","","","","","","","","","","<p>The experiment will resume in 14 seconds. ",""
"","html-keyboard-response","321","735115","0.0-2.0-4.99-1.99-17.99","ht1","[""R""]","","","","","","null","","","null","","","","","","","","","","<p>The experiment will resume in 13 seconds. ",""
"","html-keyboard-response","322","736117","0.0-2.0-4.99-1.99-18.99","ht1","[""R""]","","","","","","null","","","null","","","","","","","","","","<p>The experiment will resume in 12 seconds. ",""
"","html-keyboard-response","323","737118","0.0-2.0-4.99-1.99-19.99","ht1","[""R""]","","","","","","null","","","null","","","","","","","","","","<p>The experiment will resume in 11 seconds. ",""
"","html-keyboard-response","324","738121","0.0-2.0-4.99-1.99-20.99","ht1","[""R""]","","","","","","null","","","null","","","","","","","","","","<p>The experiment will resume in 10 seconds. ",""
"","html-keyboard-response","325","739122","0.0-2.0-4.99-1.99-21.99","ht1","[""R""]","","","","","","null","","","null","","","","","","","","","","<p>The experiment will resume in 9 seconds. ",""
"","html-keyboard-response","326","740124","0.0-2.0-4.99-1.99-22.99","ht1","[""R""]","","","","","","null","","","null","","","","","","","","","","<p>The experiment will resume in 8 seconds. ",""
"","html-keyboard-response","327","741126","0.0-2.0-4.99-1.99-23.99","ht1","[""R""]","","","","","","null","","","null","","","","","","","","","","<p>The experiment will resume in 7 seconds. ",""
"","html-keyboard-response","328","742127","0.0-2.0-4.99-1.99-24.99","ht1","[""R""]","","","","","","null","","","null","","","","","","","","","","<p>The experiment will resume in 6 seconds. ",""
"","html-keyboard-response","329","743128","0.0-2.0-4.99-1.99-25.99","ht1","[""R""]","","","","","","null","","","null","","","","","","","","","","<p>The experiment will resume in 5 seconds. ",""
"","html-keyboard-response","330","744129","0.0-2.0-4.99-1.99-26.99","ht1","[""R""]","","","","","","null","","","null","","","","","","","","","","<p>The experiment will resume in 4 seconds. ",""
"","html-keyboard-response","331","745131","0.0-2.0-4.99-1.99-27.99","ht1","[""R""]","","","","","","null","","","null","","","","","","","","","","<p>The experiment will resume in 3 seconds. ",""
"","html-keyboard-response","332","746134","0.0-2.0-4.99-1.99-28.99","ht1","[""R""]","","","","","","null","","","null","","","","","","","","","","<p>The experiment will resume in 2 seconds. ",""
"","html-keyboard-response","333","747135","0.0-2.0-4.99-1.99-29.99","ht1","[""R""]","","","","","","null","","","null","","","","","","","","","","<p>The experiment will resume in 1 seconds. ",""
"","psychophysics","334","768326","0.0-2.0-0.100","ht1","[""R""]","","","","","","20487","key","m","m","16.685931442080413","740.5","416.5","2","0","0","1","1","true","",""
"","psychophysics","335","769334","0.0-2.0-1.100","ht1","[""R""]","","","","","","null","key","null","null","16.68483050847505","740.5","416.5","2","0","0","1","1","","",""
"","psychophysics","336","770341","0.0-2.0-2.100-0.100","ht1","[""R""]","","","","","","null","key","null","null","16.687816666666187","740.5","416.5","2","0","0","1","1","","",""
"","psychophysics","337","772246","0.0-2.0-0.101","ht1","[""R""]","","","","","","1202","key","z","z","16.686557522123945","740.5","416.5","1","1","1","1","1","true","",""
"","psychophysics","338","773254","0.0-2.0-1.101","ht1","[""R""]","","","","","","null","key","null","null","16.68613559321966","740.5","416.5","1","1","1","1","1","","",""
"","psychophysics","339","774264","0.0-2.0-2.101-0.101","ht1","[""R""]","","","","","","null","key","null","null","16.68668333333335","740.5","416.5","1","1","1","1","1","","",""
"","psychophysics","340","776342","0.0-2.0-0.102","ht1","[""R""]","","","","","","1373","key","m","m","16.685479674796856","740.5","416.5","2","1","0","1","0","true","",""
"","psychophysics","341","777351","0.0-2.0-1.102","ht1","[""R""]","","","","","","null","key","null","null","16.686799999999735","740.5","416.5","2","1","0","1","0","","",""
"","psychophysics","342","778358","0.0-2.0-2.102-0.102","ht1","[""R""]","","","","","","null","key","null","null","16.685559322033473","740.5","416.5","2","1","0","1","0","","",""
"","psychophysics","343","780358","0.0-2.0-0.103","ht1","[""R""]","","","","","","1296","key","z","z","16.686739495797905","740.5","416.5","1","1","0","1","1","true","",""
"","psychophysics","344","781370","0.0-2.0-1.103","ht1","[""R""]","","","","","","null","key","null","null","16.686916666666125","740.5","416.5","1","1","0","1","1","","",""
"","psychophysics","345","782379","0.0-2.0-2.103-0.103","ht1","[""R""]","","","","","","null","key","null","null","16.687338983050104","740.5","416.5","1","1","0","1","1","","",""
"","psychophysics","346","784582","0.0-2.0-0.104","ht1","[""R""]","","","","","","1498","key","m","m","16.68651908396953","740.5","416.5","2","1","0","1","1","true","",""
"","psychophysics","347","785592","0.0-2.0-1.104","ht1","[""R""]","","","","","","null","key","null","null","16.68733333333512","740.5","416.5","2","1","0","1","1","","",""
"","psychophysics","348","786600","0.0-2.0-2.104-0.104","ht1","[""R""]","","","","","","null","key","null","null","16.6853050847451","740.5","416.5","2","1","0","1","1","","",""
"","psychophysics","349","788746","0.0-2.0-0.105","ht1","[""R""]","","","","","","1442","key","z","z","16.686500000000706","740.5","416.5","1","0","0","0","1","true","",""
"","psychophysics","350","789753","0.0-2.0-1.105","ht1","[""R""]","","","","","","null","key","null","null","16.686288135593866","740.5","416.5","1","0","0","0","1","","",""
"","psychophysics","351","790764","0.0-2.0-2.105-0.105","ht1","[""R""]","","","","","","null","key","null","null","16.686799999999735","740.5","416.5","1","0","0","0","1","","",""
"","psychophysics","352","793034","0.0-2.0-0.106","ht1","[""R""]","","","","","","1566","key","z","z","16.685785185185228","740.5","416.5","2","1","0","0","1","false","",""
"","psychophysics","353","794041","0.0-2.0-1.106","ht1","[""R""]","","","","","","null","key","null","null","16.685830508475192","740.5","416.5","2","1","0","0","1","","",""
"","psychophysics","354","795052","0.0-2.0-3.106-0.106","ht1","[""R""]","","","","","","null","key","null","null","16.68713333333338","740.5","416.5","2","1","0","0","1","","",""
"","psychophysics","355","797574","0.0-2.0-0.107","ht1","[""R""]","","","","","","1818","key","z","z","16.685986666666963","740.5","416.5","1","0","1","0","1","true","",""
"","psychophysics","356","798581","0.0-2.0-1.107","ht1","[""R""]","","","","","","null","key","null","null","16.686067796610217","740.5","416.5","1","0","1","0","1","","",""
"","psychophysics","357","799591","0.0-2.0-2.107-0.107","ht1","[""R""]","","","","","","null","key","null","null","16.687249999999768","740.5","416.5","1","0","1","0","1","","",""
"","psychophysics","358","802598","0.0-2.0-0.108","ht1","[""R""]","","","","","","2303","key","z","z","16.686000000000618","740.5","416.5","1","1","1","1","0","true","",""
"","psychophysics","359","803605","0.0-2.0-1.108","ht1","[""R""]","","","","","","null","key","null","null","16.686118644068287","740.5","416.5","1","1","1","1","0","","",""
"","psychophysics","360","804615","0.0-2.0-2.108-0.108","ht1","[""R""]","","","","","","null","key","null","null","16.686716666666324","740.5","416.5","1","1","1","1","0","","",""
"","psychophysics","361","807318","0.0-2.0-0.109","ht1","[""R""]","","","","","","1998","key","z","z","16.68534161490663","740.5","416.5","2","1","0","0","0","false","",""
"","psychophysics","362","808324","0.0-2.0-1.109","ht1","[""R""]","","","","","","null","key","null","null","16.68613559321966","740.5","416.5","2","1","0","0","0","","",""
"","psychophysics","363","809335","0.0-2.0-3.109-0.109","ht1","[""R""]","","","","","","null","key","null","null","16.686983333334016","740.5","416.5","2","1","0","0","0","","",""
"","psychophysics","364","811589","0.0-2.0-0.110","ht1","[""R""]","","","","","","1550","key","z","z","16.685992537313073","740.5","416.5","1","0","1","1","1","true","",""
"","psychophysics","365","812597","0.0-2.0-1.110","ht1","[""R""]","","","","","","null","key","null","null","16.685474576270682","740.5","416.5","1","0","1","1","1","","",""
"","psychophysics","366","813607","0.0-2.0-2.110-0.110","ht1","[""R""]","","","","","","null","key","null","null","16.6867499999993","740.5","416.5","1","0","1","1","1","","",""
"","psychophysics","367","815944","0.0-2.0-0.111","ht1","[""R""]","","","","","","1633","key","m","m","16.685726618704976","740.5","416.5","2","0","0","1","1","true","",""
"","psychophysics","368","816951","0.0-2.0-1.111","ht1","[""R""]","","","","","","null","key","null","null","16.685915254237983","740.5","416.5","2","0","0","1","1","","",""
"","psychophysics","369","817962","0.0-2.0-2.111-0.111","ht1","[""R""]","","","","","","null","key","null","null","16.68739999999913","740.5","416.5","2","0","0","1","1","","",""
"","psychophysics","370","819606","0.0-2.0-0.112","ht1","[""R""]","","","","","","940","key","m","m","16.685185567010194","740.5","416.5","1","1","1","0","1","false","",""
"","psychophysics","371","820615","0.0-2.0-1.112","ht1","[""R""]","","","","","","null","key","null","null","16.687283333332743","740.5","416.5","1","1","1","0","1","","",""
"","psychophysics","372","821623","0.0-2.0-3.112-0.112","ht1","[""R""]","","","","","","null","key","null","null","16.685949152542705","740.5","416.5","1","1","1","0","1","","",""
"","psychophysics","373","823753","0.0-2.0-0.113","ht1","[""R""]","","","","","","1426","key","m","m","16.686362204724908","740.5","416.5","2","1","1","1","1","true","",""
"","psychophysics","374","824760","0.0-2.0-1.113","ht1","[""R""]","","","","","","null","key","null","null","16.685847457626565","740.5","416.5","2","1","1","1","1","","",""
"","psychophysics","375","825771","0.0-2.0-2.113-0.113","ht1","[""R""]","","","","","","null","key","null","null","16.687366666668094","740.5","416.5","2","1","1","1","1","","",""
"","psychophysics","376","828149","0.0-2.0-0.114","ht1","[""R""]","","","","","","1675","key","z","z","16.685865248226502","740.5","416.5","1","0","1","1","1","true","",""
"","psychophysics","377","829158","0.0-2.0-1.114","ht1","[""R""]","","","","","","null","key","null","null","16.686149999999905","740.5","416.5","1","0","1","1","1","","",""
"","psychophysics","378","830166","0.0-2.0-2.114-0.114","ht1","[""R""]","","","","","","null","key","null","null","16.686305084747215","740.5","416.5","1","0","1","1","1","","",""
"","psychophysics","379","832312","0.0-2.0-0.115","ht1","[""R""]","","","","","","1443","key","z","z","16.686437499999556","740.5","416.5","2","1","0","0","1","false","",""
"","psychophysics","380","833320","0.0-2.0-1.115","ht1","[""R""]","","","","","","null","key","null","null","16.68620338983108","740.5","416.5","2","1","0","0","1","","",""
"","psychophysics","381","834331","0.0-2.0-3.115-0.115","ht1","[""R""]","","","","","","null","key","null","null","16.686816666665255","740.5","416.5","2","1","0","0","1","","",""
"","psychophysics","382","836342","0.0-2.0-0.116","ht1","[""R""]","","","","","","1307","key","m","m","16.685899159664626","740.5","416.5","2","1","1","1","1","true","",""
"","psychophysics","383","837350","0.0-2.0-1.116","ht1","[""R""]","","","","","","null","key","null","null","16.68678333333422","740.5","416.5","2","1","1","1","1","","",""
"","psychophysics","384","838359","0.0-2.0-2.116-0.116","ht1","[""R""]","","","","","","null","key","null","null","16.68649152542417","740.5","416.5","2","1","1","1","1","","",""
"","psychophysics","385","840342","0.0-2.0-0.117","ht1","[""R""]","","","","","","1278","key","m","m","16.686254237287173","740.5","416.5","2","0","1","1","1","true","",""
"","psychophysics","386","841351","0.0-2.0-1.117","ht1","[""R""]","","","","","","null","key","null","null","16.687559322033756","740.5","416.5","2","0","1","1","1","","",""
"","psychophysics","387","842360","0.0-2.0-2.117-0.117","ht1","[""R""]","","","","","","null","key","null","null","16.685766666665828","740.5","416.5","2","0","1","1","1","","",""
"","psychophysics","388","844182","0.0-2.0-0.118","ht1","[""R""]","","","","","","1118","key","m","m","16.686000000000973","740.5","416.5","1","1","0","0","0","false","",""
"","psychophysics","389","845193","0.0-2.0-1.118","ht1","[""R""]","","","","","","null","key","null","null","16.685699999999876","740.5","416.5","1","1","0","0","0","","",""
"","psychophysics","390","846200","0.0-2.0-3.118-0.118","ht1","[""R""]","","","","","","null","key","null","null","16.686593220338334","740.5","416.5","1","1","0","0","0","","",""
"","psychophysics","391","848021","0.0-2.0-0.119","ht1","[""R""]","","","","","","1117","key","m","m","16.68659259259261","740.5","416.5","2","0","1","1","1","true","",""
"","psychophysics","392","849031","0.0-2.0-1.119","ht1","[""R""]","","","","","","null","key","null","null","16.687100000000402","740.5","416.5","2","0","1","1","1","","",""
"","psychophysics","393","850039","0.0-2.0-2.119-0.119","ht1","[""R""]","","","","","","null","key","null","null","16.6873728813568","740.5","416.5","2","0","1","1","1","","",""
"","psychophysics","394","851685","0.0-2.0-0.120","ht1","[""R""]","","","","","","942","key","z","z","16.686591836734323","740.5","416.5","1","1","0","1","1","true","",""
"","psychophysics","395","852692","0.0-2.0-1.120","ht1","[""R""]","","","","","","null","key","null","null","16.6857457627124","740.5","416.5","1","1","0","1","1","","",""
"","psychophysics","396","853703","0.0-2.0-2.120-0.120","ht1","[""R""]","","","","","","null","key","null","null","16.686883333333146","740.5","416.5","1","1","0","1","1","","",""
"","psychophysics","397","855894","0.0-2.0-0.121","ht1","[""R""]","","","","","","1487","key","z","z","16.68656153846174","740.5","416.5","1","1","0","1","0","true","",""
"","psychophysics","398","856901","0.0-2.0-1.121","ht1","[""R""]","","","","","","null","key","null","null","16.6862372881358","740.5","416.5","1","1","0","1","0","","",""
"","psychophysics","399","857911","0.0-2.0-2.121-0.121","ht1","[""R""]","","","","","","null","key","null","null","16.68683333333271","740.5","416.5","1","1","0","1","0","","",""
"","psychophysics","400","860245","0.0-2.0-0.122","ht1","[""R""]","","","","","","1630","key","m","m","16.686410071942184","740.5","416.5","2","0","0","1","1","true","",""
"","psychophysics","401","861252","0.0-2.0-1.122","ht1","[""R""]","","","","","","null","key","null","null","16.689593220340736","740.5","416.5","2","0","0","1","1","","",""
"","psychophysics","402","862262","0.0-2.0-2.122-0.122","ht1","[""R""]","","","","","","null","key","null","null","16.686066666666495","740.5","416.5","2","0","0","1","1","","",""
"","psychophysics","403","864517","0.0-2.0-0.123","ht1","[""R""]","","","","","","1551","key","z","z","16.68623880597019","740.5","416.5","1","1","1","1","1","true","",""
"","psychophysics","404","865524","0.0-2.0-1.123","ht1","[""R""]","","","","","","null","key","null","null","16.686000000000774","740.5","416.5","1","1","1","1","1","","",""
"","psychophysics","405","866535","0.0-2.0-2.123-0.123","ht1","[""R""]","","","","","","null","key","null","null","16.687233333334248","740.5","416.5","1","1","1","1","1","","",""
"","psychophysics","406","868905","0.0-2.0-0.124","ht1","[""R""]","","","","","","1667","key","m","m","16.685716312056645","740.5","416.5","2","0","0","1","1","true","",""
"","psychophysics","407","869913","0.0-2.0-1.124","ht1","[""R""]","","","","","","null","key","null","null","16.687355932203452","740.5","416.5","2","0","0","1","1","","",""
"","psychophysics","408","870923","0.0-2.0-2.124-0.124","ht1","[""R""]","","","","","","null","key","null","null","16.687116666667862","740.5","416.5","2","0","0","1","1","","",""
"","psychophysics","409","873527","0.0-2.0-0.125","ht1","[""R""]","","","","","","1900","key","m","m","16.685896774193633","740.5","416.5","2","1","0","1","1","true","",""
"","psychophysics","410","874534","0.0-2.0-1.125","ht1","[""R""]","","","","","","null","key","null","null","16.684932203389216","740.5","416.5","2","1","0","1","1","","",""
"","psychophysics","411","875545","0.0-2.0-2.125-0.125","ht1","[""R""]","","","","","","null","key","null","null","16.687349999998695","740.5","416.5","2","1","0","1","1","","",""
"","psychophysics","412","877126","0.0-2.0-0.126","ht1","[""R""]","","","","","","877","key","z","z","16.685924731182457","740.5","416.5","1","1","0","1","1","true","",""
"","psychophysics","413","878135","0.0-2.0-1.126","ht1","[""R""]","","","","","","null","key","null","null","16.687166666666357","740.5","416.5","1","1","0","1","1","","",""
"","psychophysics","414","879142","0.0-2.0-2.126-0.126","ht1","[""R""]","","","","","","null","key","null","null","16.686338983049964","740.5","416.5","1","1","0","1","1","","",""
"","psychophysics","415","880902","0.0-2.0-0.127","ht1","[""R""]","","","","","","1056","key","z","z","16.68645714285695","740.5","416.5","2","1","1","0","0","false","",""
"","psychophysics","416","881911","0.0-2.0-1.127","ht1","[""R""]","","","","","","null","key","null","null","16.686338983049964","740.5","416.5","2","1","1","0","0","","",""
"","psychophysics","417","882920","0.0-2.0-3.127-0.127","ht1","[""R""]","","","","","","null","key","null","null","16.686233333333316","740.5","416.5","2","1","1","0","0","","",""
"","psychophysics","418","884790","0.0-2.0-0.128","ht1","[""R""]","","","","","","1165","key","z","z","16.68668468468529","740.5","416.5","1","1","0","1","0","true","",""
"","psychophysics","419","885797","0.0-2.0-1.128","ht1","[""R""]","","","","","","null","key","null","null","16.685898305084635","740.5","416.5","1","1","0","1","0","","",""
"","psychophysics","420","886808","0.0-2.0-2.128-0.128","ht1","[""R""]","","","","","","null","key","null","null","16.686650000000373","740.5","416.5","1","1","0","1","0","","",""
"","psychophysics","421","889430","0.0-2.0-0.129","ht1","[""R""]","","","","","","1917","key","z","z","16.685762820513144","740.5","416.5","1","1","1","0","1","true","",""
"","psychophysics","422","890437","0.0-2.0-1.129","ht1","[""R""]","","","","","","null","key","null","null","16.68516949152424","740.5","416.5","1","1","1","0","1","","",""
"","psychophysics","423","891447","0.0-2.0-2.129-0.129","ht1","[""R""]","","","","","","null","key","null","null","16.68631666666673","740.5","416.5","1","1","1","0","1","","",""
"","psychophysics","424","894952","0.0-2.0-0.130","ht1","[""R""]","","","","","","2801","key","m","m","16.68603349282266","740.5","416.5","2","1","0","1","0","true","",""
"","psychophysics","425","895959","0.0-2.0-1.130","ht1","[""R""]","","","","","","null","key","null","null","16.68701694915229","740.5","416.5","2","1","0","1","0","","",""
"","psychophysics","426","896970","0.0-2.0-2.130-0.130","ht1","[""R""]","","","","","","null","key","null","null","16.686816666665255","740.5","416.5","2","1","0","1","0","","",""
"","psychophysics","427","899173","0.0-2.0-0.131","ht1","[""R""]","","","","","","1499","key","z","z","16.686175572518827","740.5","416.5","1","1","0","1","0","true","",""
"","psychophysics","428","900180","0.0-2.0-1.131","ht1","[""R""]","","","","","","null","key","null","null","16.688050847457152","740.5","416.5","1","1","0","1","0","","",""
"","psychophysics","429","901192","0.0-2.0-2.131-0.131","ht1","[""R""]","","","","","","null","key","null","null","16.687166666666357","740.5","416.5","1","1","0","1","0","","",""
"","psychophysics","430","903366","0.0-2.0-0.132","ht1","[""R""]","","","","","","1470","key","z","z","16.68565891472832","740.5","416.5","1","0","1","1","1","true","",""
"","psychophysics","431","904373","0.0-2.0-1.132","ht1","[""R""]","","","","","","null","key","null","null","16.687694915254617","740.5","416.5","1","0","1","1","1","","",""
"","psychophysics","432","905382","0.0-2.0-2.132-0.132","ht1","[""R""]","","","","","","null","key","null","null","16.68739999999913","740.5","416.5","1","0","1","1","1","","",""
"","psychophysics","433","907638","0.0-2.0-0.133","ht1","[""R""]","","","","","","1552","key","z","z","16.68652238806018","740.5","416.5","1","1","0","1","1","true","",""
"","psychophysics","434","908646","0.0-2.0-1.133","ht1","[""R""]","","","","","","null","key","null","null","16.687423728812895","740.5","416.5","1","1","0","1","1","","",""
"","psychophysics","435","909655","0.0-2.0-2.133-0.133","ht1","[""R""]","","","","","","null","key","null","null","16.686983333334016","740.5","416.5","1","1","0","1","1","","",""
"","psychophysics","436","911704","0.0-2.0-0.134","ht1","[""R""]","","","","","","1346","key","z","z","16.68663934426245","740.5","416.5","2","0","1","0","0","false","",""
"","psychophysics","437","912711","0.0-2.0-1.134","ht1","[""R""]","","","","","","null","key","null","null","16.685779661017122","740.5","416.5","2","0","1","0","0","","",""
"","psychophysics","438","913722","0.0-2.0-3.134-0.134","ht1","[""R""]","","","","","","null","key","null","null","16.68731666666572","740.5","416.5","2","0","1","0","0","","",""
"","psychophysics","439","915525","0.0-2.0-0.135","ht1","[""R""]","","","","","","1099","key","m","m","16.68565420560739","740.5","416.5","1","0","1","1","0","false","",""
"","psychophysics","440","916534","0.0-2.0-1.135","ht1","[""R""]","","","","","","null","key","null","null","16.6857457627124","740.5","416.5","1","0","1","1","0","","",""
"","psychophysics","441","917544","0.0-2.0-3.135-0.135","ht1","[""R""]","","","","","","null","key","null","null","16.68741666666659","740.5","416.5","1","0","1","1","0","","",""
"","psychophysics","442","920006","0.0-2.0-0.136","ht1","[""R""]","","","","","","1758","key","z","z","16.685773972602888","740.5","416.5","1","0","1","1","1","true","",""
"","psychophysics","443","921014","0.0-2.0-1.136","ht1","[""R""]","","","","","","null","key","null","null","16.687633333333846","740.5","416.5","1","0","1","1","1","","",""
"","psychophysics","444","922022","0.0-2.0-2.136-0.136","ht1","[""R""]","","","","","","null","key","null","null","16.685949152542705","740.5","416.5","1","0","1","1","1","","",""
"","psychophysics","445","923818","0.0-2.0-0.137","ht1","[""R""]","","","","","","1092","key","z","z","16.68596261682285","740.5","416.5","1","1","0","1","0","true","",""
"","psychophysics","446","924824","0.0-2.0-1.137","ht1","[""R""]","","","","","","null","key","null","null","16.685949152542705","740.5","416.5","1","1","0","1","0","","",""
"","psychophysics","447","925837","0.0-2.0-2.137-0.137","ht1","[""R""]","","","","","","null","key","null","null","16.68666666666589","740.5","416.5","1","1","0","1","0","","",""
"","psychophysics","448","927845","0.0-2.0-0.138","ht1","[""R""]","","","","","","1306","key","z","z","16.685722689075835","740.5","416.5","1","0","0","1","1","true","",""
"","psychophysics","449","928856","0.0-2.0-1.138","ht1","[""R""]","","","","","","null","key","null","null","16.68594999999817","740.5","416.5","1","0","0","1","1","","",""
"","psychophysics","450","929863","0.0-2.0-2.138-0.138","ht1","[""R""]","","","","","","null","key","null","null","16.684644067798093","740.5","416.5","1","0","0","1","1","","",""
"","psychophysics","451","932377","0.0-2.0-0.139","ht1","[""R""]","","","","","","1810","key","z","z","16.685726666667033","740.5","416.5","1","0","0","1","0","true","",""
"","psychophysics","452","933384","0.0-2.0-1.139","ht1","[""R""]","","","","","","null","key","null","null","16.686016949152148","740.5","416.5","1","0","0","1","0","","",""
"","psychophysics","453","934404","0.0-2.0-2.139-0.139","ht1","[""R""]","","","","","","null","key","null","null","16.686983333334016","740.5","416.5","1","0","0","1","0","","",""
"","psychophysics","454","936485","0.0-2.0-0.140","ht1","[""R""]","","","","","","1377","key","m","m","16.686459677419702","740.5","416.5","2","1","0","1","1","true","",""
"","psychophysics","455","937492","0.0-2.0-1.140","ht1","[""R""]","","","","","","null","key","null","null","16.685915254237983","740.5","416.5","2","1","0","1","1","","",""
"","psychophysics","456","938501","0.0-2.0-2.140-0.140","ht1","[""R""]","","","","","","null","key","null","null","16.68740000000107","740.5","416.5","2","1","0","1","1","","",""
"","psychophysics","457","940693","0.0-2.0-0.141","ht1","[""R""]","","","","","","1488","key","z","z","16.685969230769057","740.5","416.5","2","0","0","0","0","false","",""
"","psychophysics","458","941703","0.0-2.0-1.141","ht1","[""R""]","","","","","","null","key","null","null","16.686966666666557","740.5","416.5","2","0","0","0","0","","",""
"","psychophysics","459","942712","0.0-2.0-3.141-0.141","ht1","[""R""]","","","","","","null","key","null","null","16.684338983051653","740.5","416.5","2","0","0","0","0","","",""
"","psychophysics","460","944424","0.0-2.0-0.142","ht1","[""R""]","","","","","","1009","key","z","z","16.686784313724594","740.5","416.5","1","0","0","1","1","true","",""
"","psychophysics","461","945433","0.0-2.0-1.142","ht1","[""R""]","","","","","","null","key","null","null","16.68608474576159","740.5","416.5","1","0","0","1","1","","",""
"","psychophysics","462","946443","0.0-2.0-2.142-0.142","ht1","[""R""]","","","","","","null","key","null","null","16.686983333332076","740.5","416.5","1","0","0","1","1","","",""
"","psychophysics","463","948389","0.0-2.0-0.143","ht1","[""R""]","","","","","","1243","key","m","m","16.685747826087248","740.5","416.5","2","1","0","1","0","true","",""
"","psychophysics","464","949398","0.0-2.0-1.143","ht1","[""R""]","","","","","","null","key","null","null","16.685800000000746","740.5","416.5","2","1","0","1","0","","",""
"","psychophysics","465","950406","0.0-2.0-2.143-0.143","ht1","[""R""]","","","","","","null","key","null","null","16.686084745763566","740.5","416.5","2","1","0","1","0","","",""
"","psychophysics","466","952325","0.0-2.0-0.144","ht1","[""R""]","","","","","","1215","key","z","z","16.685877192982986","740.5","416.5","2","1","1","0","1","false","",""
"","psychophysics","467","953333","0.0-2.0-1.144","ht1","[""R""]","","","","","","null","key","null","null","16.687166666666357","740.5","416.5","2","1","1","0","1","","",""
"","psychophysics","468","954342","0.0-2.0-3.144-0.144","ht1","[""R""]","","","","","","null","key","null","null","16.685728813559052","740.5","416.5","2","1","1","0","1","","",""
"","psychophysics","469","957397","0.0-2.0-0.145","ht1","[""R""]","","","","","","2352","key","z","z","16.686241758242122","740.5","416.5","1","1","1","1","1","true","",""
"","psychophysics","470","958406","0.0-2.0-1.145","ht1","[""R""]","","","","","","null","key","null","null","16.686233333333316","740.5","416.5","1","1","1","1","1","","",""
"","psychophysics","471","959414","0.0-2.0-2.145-0.145","ht1","[""R""]","","","","","","null","key","null","null","16.68535593220317","740.5","416.5","1","1","1","1","1","","",""
"","psychophysics","472","961189","0.0-2.0-0.146","ht1","[""R""]","","","","","","1071","key","m","m","16.685838095237322","740.5","416.5","1","0","1","0","0","false","",""
"","psychophysics","473","962198","0.0-2.0-1.146","ht1","[""R""]","","","","","","null","key","null","null","16.68686666666569","740.5","416.5","1","0","1","0","0","","",""
"","psychophysics","474","963207","0.0-2.0-3.146-0.146","ht1","[""R""]","","","","","","null","key","null","null","16.686372881356657","740.5","416.5","1","0","1","0","0","","",""
"","psychophysics","475","965349","0.0-2.0-0.147","ht1","[""R""]","","","","","","1436","key","m","m","16.68628906250069","740.5","416.5","1","1","0","0","0","false","",""
"","psychophysics","476","966356","0.0-2.0-1.147","ht1","[""R""]","","","","","","null","key","null","null","16.68540677966124","740.5","416.5","1","1","0","0","0","","",""
"","psychophysics","477","967367","0.0-2.0-3.147-0.147","ht1","[""R""]","","","","","","null","key","null","null","16.685783333333287","740.5","416.5","1","1","0","0","0","","",""
"","psychophysics","478","969781","0.0-2.0-0.148","ht1","[""R""]","","","","","","1711","key","z","z","16.686475524475302","740.5","416.5","1","0","1","1","1","true","",""
"","psychophysics","479","970789","0.0-2.0-1.148","ht1","[""R""]","","","","","","null","key","null","null","16.68668333333335","740.5","416.5","1","0","1","1","1","","",""
"","psychophysics","480","971797","0.0-2.0-2.148-0.148","ht1","[""R""]","","","","","","null","key","null","null","16.68466101694947","740.5","416.5","1","0","1","1","1","","",""
"","psychophysics","481","973749","0.0-2.0-0.149","ht1","[""R""]","","","","","","1247","key","z","z","16.68646551724142","740.5","416.5","1","0","1","1","1","true","",""
"","psychophysics","482","974758","0.0-2.0-1.149","ht1","[""R""]","","","","","","null","key","null","null","16.687066666667427","740.5","416.5","1","0","1","1","1","","",""
"","psychophysics","483","975766","0.0-2.0-2.149-0.149","ht1","[""R""]","","","","","","null","key","null","null","16.685237288135657","740.5","416.5","1","0","1","1","1","","",""
"","psychophysics","484","978117","0.0-2.0-0.150","ht1","[""R""]","","","","","","1647","key","z","z","16.686100000000028","740.5","416.5","1","0","1","0","1","true","",""
"","psychophysics","485","979124","0.0-2.0-1.150","ht1","[""R""]","","","","","","null","key","null","null","16.686593220338334","740.5","416.5","1","0","1","0","1","","",""
"","psychophysics","486","980133","0.0-2.0-2.150-0.150","ht1","[""R""]","","","","","","null","key","null","null","16.686433333333117","740.5","416.5","1","0","1","0","1","","",""
"","psychophysics","487","981909","0.0-2.0-0.151","ht1","[""R""]","","","","","","1072","key","z","z","16.686038095237954","740.5","416.5","1","0","0","1","1","true","",""
"","psychophysics","488","982917","0.0-2.0-1.151","ht1","[""R""]","","","","","","null","key","null","null","16.686533333333987","740.5","416.5","1","0","0","1","1","","",""
"","psychophysics","489","983926","0.0-2.0-2.151-0.151","ht1","[""R""]","","","","","","null","key","null","null","16.685118644068144","740.5","416.5","1","0","0","1","1","","",""
"","psychophysics","490","986245","0.0-2.0-0.152","ht1","[""R""]","","","","","","1615","key","z","z","16.68636956521769","740.5","416.5","2","1","1","1","0","false","",""
"","psychophysics","491","987253","0.0-2.0-1.152","ht1","[""R""]","","","","","","null","key","null","null","16.68698305084757","740.5","416.5","2","1","1","1","0","","",""
"","psychophysics","492","988261","0.0-2.0-3.152-0.152","ht1","[""R""]","","","","","","null","key","null","null","16.686966666666557","740.5","416.5","2","1","1","1","0","","",""
"","psychophysics","493","990389","0.0-2.0-0.153","ht1","[""R""]","","","","","","1424","key","z","z","16.68596031746018","740.5","416.5","1","1","1","1","1","true","",""
"","psychophysics","494","991397","0.0-2.0-1.153","ht1","[""R""]","","","","","","null","key","null","null","16.687283333334683","740.5","416.5","1","1","1","1","1","","",""
"","psychophysics","495","992405","0.0-2.0-2.153-0.153","ht1","[""R""]","","","","","","null","key","null","null","16.685322033898448","740.5","416.5","1","1","1","1","1","","",""
"","psychophysics","496","994599","0.0-2.0-0.154","ht1","[""R""]","","","","","","1489","key","z","z","16.686305343511137","740.5","416.5","2","0","0","1","1","false","",""
"","psychophysics","497","995605","0.0-2.0-1.154","ht1","[""R""]","","","","","","null","key","null","null","16.68549152542403","740.5","416.5","2","0","0","1","1","","",""
"","psychophysics","498","996613","0.0-2.0-3.154-0.154","ht1","[""R""]","","","","","","null","key","null","null","16.68649152542417","740.5","416.5","2","0","0","1","1","","",""
"","psychophysics","499","999077","0.0-2.0-0.155","ht1","[""R""]","","","","","","1759","key","m","m","16.686088435374025","740.5","416.5","1","0","1","1","0","false","",""
"","psychophysics","500","1000087","0.0-2.0-1.155","ht1","[""R""]","","","","","","null","key","null","null","16.686799999999735","740.5","416.5","1","0","1","1","0","","",""
"","psychophysics","501","1001096","0.0-2.0-3.155-0.155","ht1","[""R""]","","","","","","null","key","null","null","16.68583050847322","740.5","416.5","1","0","1","1","0","","",""
"","psychophysics","502","1002981","0.0-2.0-0.156","ht1","[""R""]","","","","","","1181","key","z","z","16.68650892857113","740.5","416.5","1","0","1","1","1","true","",""
"","psychophysics","503","1003988","0.0-2.0-1.156","ht1","[""R""]","","","","","","null","key","null","null","16.687169491524525","740.5","416.5","1","0","1","1","1","","",""
"","psychophysics","504","1004997","0.0-2.0-2.156-0.156","ht1","[""R""]","","","","","","null","key","null","null","16.686349999999706","740.5","416.5","1","0","1","1","1","","",""
"","psychophysics","505","1006805","0.0-2.0-0.157","ht1","[""R""]","","","","","","1104","key","z","z","16.68636448598123","740.5","416.5","2","1","1","0","1","false","",""
"","psychophysics","506","1007813","0.0-2.0-1.157","ht1","[""R""]","","","","","","null","key","null","null","16.68605000000098","740.5","416.5","2","1","1","0","1","","",""
"","psychophysics","507","1008821","0.0-2.0-3.157-0.157","ht1","[""R""]","","","","","","null","key","null","null","16.68608474576159","740.5","416.5","2","1","1","0","1","","",""
"","psychophysics","508","1010741","0.0-2.0-0.158","ht1","[""R""]","","","","","","1217","key","z","z","16.68663157894799","740.5","416.5","2","0","0","0","1","false","",""
"","psychophysics","509","1011751","0.0-2.0-1.158","ht1","[""R""]","","","","","","null","key","null","null","16.686816666667195","740.5","416.5","2","0","0","0","1","","",""
"","psychophysics","510","1012760","0.0-2.0-3.158-0.158","ht1","[""R""]","","","","","","null","key","null","null","16.686067796610217","740.5","416.5","2","0","0","0","1","","",""
"","psychophysics","511","1014565","0.0-2.0-0.159","ht1","[""R""]","","","","","","1099","key","m","m","16.686626168223594","740.5","416.5","2","1","1","1","1","true","",""
"","psychophysics","512","1015573","0.0-2.0-1.159","ht1","[""R""]","","","","","","null","key","null","null","16.687149999998898","740.5","416.5","2","1","1","1","1","","",""
"","psychophysics","513","1016582","0.0-2.0-2.159-0.159","ht1","[""R""]","","","","","","null","key","null","null","16.68530508474707","740.5","416.5","2","1","1","1","1","","",""
"","psychophysics","514","1018343","0.0-2.0-0.160","ht1","[""R""]","","","","","","1058","key","z","z","16.686742857142928","740.5","416.5","1","0","1","1","1","true","",""
"","psychophysics","515","1019349","0.0-2.0-1.160","ht1","[""R""]","","","","","","null","key","null","null","16.685898305084635","740.5","416.5","1","0","1","1","1","","",""
"","psychophysics","516","1020361","0.0-2.0-2.160-0.160","ht1","[""R""]","","","","","","null","key","null","null","16.68816666666729","740.5","416.5","1","0","1","1","1","","",""
"","psychophysics","517","1022965","0.0-2.0-0.161","ht1","[""R""]","","","","","","1900","key","m","m","16.68601935483936","740.5","416.5","2","0","0","1","1","true","",""
"","psychophysics","518","1023972","0.0-2.0-1.161","ht1","[""R""]","","","","","","null","key","null","null","16.685915254237983","740.5","416.5","2","0","0","1","1","","",""
"","psychophysics","519","1024983","0.0-2.0-2.161-0.161","ht1","[""R""]","","","","","","null","key","null","null","16.687350000000638","740.5","416.5","2","0","0","1","1","","",""
"","psychophysics","520","1027109","0.0-2.0-0.162","ht1","[""R""]","","","","","","1422","key","m","m","16.685801587302223","740.5","416.5","1","1","0","0","1","false","",""
"","psychophysics","521","1028116","0.0-2.0-1.162","ht1","[""R""]","","","","","","null","key","null","null","16.686661016949753","740.5","416.5","1","1","0","0","1","","",""
"","psychophysics","522","1029125","0.0-2.0-3.162-0.162","ht1","[""R""]","","","","","","null","key","null","null","16.686500000001008","740.5","416.5","1","1","0","0","1","","",""
"","psychophysics","523","1032359","0.0-2.0-0.163","ht1","[""R""]","","","","","","2530","key","m","m","16.685911917098714","740.5","416.5","2","0","0","1","1","true","",""
"","psychophysics","524","1033365","0.0-2.0-1.163","ht1","[""R""]","","","","","","null","key","null","null","16.686254237287173","740.5","416.5","2","0","0","1","1","","",""
"","psychophysics","525","1034377","0.0-2.0-2.163-0.163","ht1","[""R""]","","","","","","null","key","null","null","16.686633333334854","740.5","416.5","2","0","0","1","1","","",""
"","psychophysics","526","1036517","0.0-2.0-0.164","ht1","[""R""]","","","","","","1436","key","m","m","16.68591338582612","740.5","416.5","2","0","0","1","1","true","",""
"","psychophysics","527","1037524","0.0-2.0-1.164","ht1","[""R""]","","","","","","null","key","null","null","16.686135593221632","740.5","416.5","2","0","0","1","1","","",""
"","psychophysics","528","1038533","0.0-2.0-2.164-0.164","ht1","[""R""]","","","","","","null","key","null","null","16.686966666666557","740.5","416.5","2","0","0","1","1","","",""
"","psychophysics","529","1041077","0.0-2.0-0.165","ht1","[""R""]","","","","","","1839","key","z","z","16.68572847682147","740.5","416.5","1","1","0","0","1","true","",""
"","psychophysics","530","1042086","0.0-2.0-1.165","ht1","[""R""]","","","","","","null","key","null","null","16.687233333334248","740.5","416.5","1","1","0","0","1","","",""
"","psychophysics","531","1043094","0.0-2.0-2.165-0.165","ht1","[""R""]","","","","","","null","key","null","null","16.685457627119305","740.5","416.5","1","1","0","0","1","","",""
"","psychophysics","532","1045461","0.0-2.0-0.166","ht1","[""R""]","","","","","","1663","key","m","m","16.68568794326262","740.5","416.5","2","0","0","1","1","true","",""
"","psychophysics","533","1046468","0.0-2.0-1.166","ht1","[""R""]","","","","","","null","key","null","null","16.68588135593326","740.5","416.5","2","0","0","1","1","","",""
"","psychophysics","534","1047478","0.0-2.0-2.166-0.166","ht1","[""R""]","","","","","","null","key","null","null","16.687049999999967","740.5","416.5","2","0","0","1","1","","",""
"","psychophysics","535","1049237","0.0-2.0-0.167","ht1","[""R""]","","","","","","1056","key","z","z","16.68577884615269","740.5","416.5","1","1","1","1","1","true","",""
"","psychophysics","536","1050247","0.0-2.0-1.167","ht1","[""R""]","","","","","","null","key","null","null","16.687100000000402","740.5","416.5","1","1","1","1","1","","",""
"","psychophysics","537","1051256","0.0-2.0-2.167-0.167","ht1","[""R""]","","","","","","null","key","null","null","16.68579661017047","740.5","416.5","1","1","1","1","1","","",""
"","psychophysics","538","1053237","0.0-2.0-0.168","ht1","[""R""]","","","","","","1278","key","z","z","16.68649152542417","740.5","416.5","1","0","1","1","1","true","",""
"","psychophysics","539","1054244","0.0-2.0-1.168","ht1","[""R""]","","","","","","null","key","null","null","16.685711864405707","740.5","416.5","1","0","1","1","1","","",""
"","psychophysics","540","1055254","0.0-2.0-2.168-0.168","ht1","[""R""]","","","","","","null","key","null","null","16.68629999999733","740.5","416.5","1","0","1","1","1","","",""
"","psychophysics","541","1057078","0.0-2.0-0.169","ht1","[""R""]","","","","","","1120","key","z","z","16.68594444444386","740.5","416.5","1","1","1","1","1","true","",""
"","psychophysics","542","1058088","0.0-2.0-1.169","ht1","[""R""]","","","","","","null","key","null","null","16.6869666666685","740.5","416.5","1","1","1","1","1","","",""
"","psychophysics","543","1059096","0.0-2.0-2.169-0.169","ht1","[""R""]","","","","","","null","key","null","null","16.68584745762854","740.5","416.5","1","1","1","1","1","","",""
"","psychophysics","544","1061606","0.0-2.0-0.170","ht1","[""R""]","","","","","","1805","key","z","z","16.686181208053167","740.5","416.5","2","0","0","1","0","false","",""
"","psychophysics","545","1062613","0.0-2.0-1.170","ht1","[""R""]","","","","","","null","key","null","null","16.686633333330974","740.5","416.5","2","0","0","1","0","","",""
"","psychophysics","546","1063621","0.0-2.0-3.170-0.170","ht1","[""R""]","","","","","","null","key","null","null","16.687694915254617","740.5","416.5","2","0","0","1","0","","",""
"","psychophysics","547","1066085","0.0-2.0-0.171","ht1","[""R""]","","","","","","1760","key","z","z","16.68657823129348","740.5","416.5","1","0","1","1","1","true","",""
"","psychophysics","548","1067092","0.0-2.0-1.171","ht1","[""R""]","","","","","","null","key","null","null","16.68627118644052","740.5","416.5","1","0","1","1","1","","",""
"","psychophysics","549","1068101","0.0-2.0-2.171-0.171","ht1","[""R""]","","","","","","null","key","null","null","16.686716666670204","740.5","416.5","1","0","1","1","1","","",""
"","psychophysics","550","1070629","0.0-2.0-0.172","ht1","[""R""]","","","","","","1825","key","z","z","16.685580000000385","740.5","416.5","1","1","1","0","1","true","",""
"","psychophysics","551","1071637","0.0-2.0-1.172","ht1","[""R""]","","","","","","null","key","null","null","16.686333333336126","740.5","416.5","1","1","1","0","1","","",""
"","psychophysics","552","1072645","0.0-2.0-2.172-0.172","ht1","[""R""]","","","","","","null","key","null","null","16.687254237287316","740.5","416.5","1","1","1","0","1","","",""
"","psychophysics","553","1074885","0.0-2.0-0.173","ht1","[""R""]","","","","","","1536","key","z","z","16.686195488721552","740.5","416.5","1","0","1","0","1","true","",""
"","psychophysics","554","1075893","0.0-2.0-1.173","ht1","[""R""]","","","","","","null","key","null","null","16.687049999999967","740.5","416.5","1","0","1","0","1","","",""
"","psychophysics","555","1076901","0.0-2.0-2.173-0.173","ht1","[""R""]","","","","","","null","key","null","null","16.68627118644052","740.5","416.5","1","0","1","0","1","","",""
"","psychophysics","556","1079237","0.0-2.0-0.174","ht1","[""R""]","","","","","","1632","key","z","z","16.686043165468362","740.5","416.5","1","0","1","1","1","true","",""
"","psychophysics","557","1080247","0.0-2.0-1.174","ht1","[""R""]","","","","","","null","key","null","null","16.68564999999944","740.5","416.5","1","0","1","1","1","","",""
"","psychophysics","558","1081255","0.0-2.0-2.174-0.174","ht1","[""R""]","","","","","","null","key","null","null","16.68620338983108","740.5","416.5","1","0","1","1","1","","",""
"","psychophysics","559","1083909","0.0-2.0-0.175","ht1","[""R""]","","","","","","1950","key","z","z","16.686335443038658","740.5","416.5","1","0","0","0","1","true","",""
"","psychophysics","560","1084919","0.0-2.0-1.175","ht1","[""R""]","","","","","","null","key","null","null","16.686883333333146","740.5","416.5","1","0","0","0","1","","",""
"","psychophysics","561","1085927","0.0-2.0-2.175-0.175","ht1","[""R""]","","","","","","null","key","null","null","16.685779661019097","740.5","416.5","1","0","0","0","1","","",""
"","psychophysics","562","1087925","0.0-2.0-0.176","ht1","[""R""]","","","","","","1294","key","z","z","16.68646218487406","740.5","416.5","1","0","1","1","1","true","",""
"","psychophysics","563","1088932","0.0-2.0-1.176","ht1","[""R""]","","","","","","null","key","null","null","16.685728813561028","740.5","416.5","1","0","1","1","1","","",""
"","psychophysics","564","1089942","0.0-2.0-2.176-0.176","ht1","[""R""]","","","","","","null","key","null","null","16.687016666665052","740.5","416.5","1","0","1","1","1","","",""
"","psychophysics","565","1092085","0.0-2.0-0.177","ht1","[""R""]","","","","","","1440","key","m","m","16.68531496062926","740.5","416.5","2","1","0","1","1","true","",""
"","psychophysics","566","1093095","0.0-2.0-1.177","ht1","[""R""]","","","","","","null","key","null","null","16.686416666667597","740.5","416.5","2","1","0","1","1","","",""
