"success","trial_type","trial_index","time_elapsed","internal_node_id","subject","condition","timeout","failed_images","failed_audio","failed_video","view_history","rt","response_type","key_press","response","avg_frame_time","center_x","center_y","outcome","p1conf","p2conf","p1rslt","p2rslt","correct","stimulus","question_order"
"true","fullscreen","0","2443","0.0-0.0-0.0","pj7","[""R""]","","","","","","","","","","","","","","","","","","","",""
"true","preload","1","2448","0.0-0.0-1.0","pj7","[""R""]","false","[]","[]","[]","","","","","","","","","","","","","","","",""
"","instructions","2","195108","0.0-1.0","pj7","[""R""]","","","","","[{""page_index"":0,""viewing_time"":145946},{""page_index"":1,""viewing_time"":26144},{""page_index"":2,""viewing_time"":20568}]","192658","","","","","","","","","","","","","",""
"","psychophysics","3","200632","0.0-2.0-0.0","pj7","[""R""]","","","","","","4819","key","z","z","16.73620909090916","740.5","416.5","2","1","0","0","1","false","",""
"","psychophysics","4","201640","0.0-2.0-1.0","pj7","[""R""]","","","","","","null","key","null","null","16.68709999999992","740.5","416.5","2","1","0","0","1","","",""
"","psychophysics","5","202649","0.0-2.0-3.0-0.0","pj7","[""R""]","","","","","","null","key","null","null","16.68620338983009","740.5","416.5","2","1","0","0","1","","",""
"","psychophysics","6","215477","0.0-2.0-0.1","pj7","[""R""]","","","","","","12117","key","m","m","16.685916666666646","740.5","416.5","2","0","0","0","1","true","",""
"","psychophysics","7","216485","0.0-2.0-1.1","pj7","[""R""]","","","","","","null","key","null","null","16.686305084745737","740.5","416.5","2","0","0","0","1","","",""
"","psychophysics","8","217504","0.0-2.0-2.1-0.1","pj7","[""R""]","","","","","","null","key","null","null","16.685333333333254","740.5","416.5","2","0","0","0","1","","",""
"","psychophysics","9","237604","0.0-2.0-0.2","pj7","[""R""]","","","","","","19395","key","m","m","16.6859526578073","740.5","416.5","1","1","0","0","1","false","",""
"","psychophysics","10","238616","0.0-2.0-1.2","pj7","[""R""]","","","","","","null","key","null","null","16.68716666666684","740.5","416.5","1","1","0","0","1","","",""
"","psychophysics","11","239625","0.0-2.0-3.2-0.2","pj7","[""R""]","","","","","","null","key","null","null","16.687576271186117","740.5","416.5","1","1","0","0","1","","",""
"","psychophysics","12","244116","0.0-2.0-0.3","pj7","[""R""]","","","","","","3787","key","m","m","16.686160447761207","740.5","416.5","2","0","1","1","1","true","",""
"","psychophysics","13","245124","0.0-2.0-1.3","pj7","[""R""]","","","","","","null","key","null","null","16.68670000000032","740.5","416.5","2","0","1","1","1","","",""
"","psychophysics","14","246132","0.0-2.0-2.3-0.3","pj7","[""R""]","","","","","","null","key","null","null","16.68708474576272","740.5","416.5","2","0","1","1","1","","",""
"","psychophysics","15","249220","0.0-2.0-0.4","pj7","[""R""]","","","","","","2384","key","m","m","16.686211956521774","740.5","416.5","1","1","1","1","1","false","",""
"","psychophysics","16","250229","0.0-2.0-1.4","pj7","[""R""]","","","","","","null","key","null","null","16.687049999999967","740.5","416.5","1","1","1","1","1","","",""
"","psychophysics","17","251238","0.0-2.0-3.4-0.4","pj7","[""R""]","","","","","","null","key","null","null","16.686101694915433","740.5","416.5","1","1","1","1","1","","",""
"","psychophysics","18","256854","0.0-2.0-0.5","pj7","[""R""]","","","","","","4912","key","z","z","16.686029761904745","740.5","416.5","1","1","1","0","1","true","",""
"","psychophysics","19","257861","0.0-2.0-1.5","pj7","[""R""]","","","","","","null","key","null","null","16.68699999999993","740.5","416.5","1","1","1","0","1","","",""
"","psychophysics","20","258872","0.0-2.0-2.5-0.5","pj7","[""R""]","","","","","","null","key","null","null","16.686733333333784","740.5","416.5","1","1","1","0","1","","",""
"","psychophysics","21","265492","0.0-2.0-0.6","pj7","[""R""]","","","","","","5916","key","m","m","16.68590126582274","740.5","416.5","2","0","1","1","1","true","",""
"","psychophysics","22","266500","0.0-2.0-1.6","pj7","[""R""]","","","","","","null","key","null","null","16.687366666666154","740.5","416.5","2","0","1","1","1","","",""
"","psychophysics","23","267509","0.0-2.0-2.6-0.6","pj7","[""R""]","","","","","","null","key","null","null","16.686779661017265","740.5","416.5","2","0","1","1","1","","",""
"","psychophysics","24","272964","0.0-2.0-0.7","pj7","[""R""]","","","","","","4747","key","m","m","16.68590184049077","740.5","416.5","1","1","1","0","1","false","",""
"","psychophysics","25","273973","0.0-2.0-1.7","pj7","[""R""]","","","","","","null","key","null","null","16.687149999999868","740.5","416.5","1","1","1","0","1","","",""
"","psychophysics","26","274981","0.0-2.0-3.7-0.7","pj7","[""R""]","","","","","","null","key","null","null","16.685762711863774","740.5","416.5","1","1","1","0","1","","",""
"","psychophysics","27","284548","0.0-2.0-0.8","pj7","[""R""]","","","","","","8863","key","m","m","16.68598601398605","740.5","416.5","2","1","1","0","1","true","",""
"","psychophysics","28","285556","0.0-2.0-1.8","pj7","[""R""]","","","","","","null","key","null","null","16.68695000000007","740.5","416.5","2","1","1","0","1","","",""
"","psychophysics","29","286564","0.0-2.0-2.8-0.8","pj7","[""R""]","","","","","","null","key","null","null","16.686694915254474","740.5","416.5","2","1","1","0","1","","",""
"","psychophysics","30","293124","0.0-2.0-0.9","pj7","[""R""]","","","","","","5852","key","z","z","16.685964285714252","740.5","416.5","1","1","1","1","1","true","",""
"","psychophysics","31","294132","0.0-2.0-1.9","pj7","[""R""]","","","","","","null","key","null","null","16.687083333333916","740.5","416.5","1","1","1","1","1","","",""
"","psychophysics","32","295141","0.0-2.0-2.9-0.9","pj7","[""R""]","","","","","","null","key","null","null","16.685101694915783","740.5","416.5","1","1","1","1","1","","",""
"","psychophysics","33","299844","0.0-2.0-0.10","pj7","[""R""]","","","","","","3995","key","z","z","16.686128113878887","740.5","416.5","1","1","1","1","1","true","",""
"","psychophysics","34","300854","0.0-2.0-1.10","pj7","[""R""]","","","","","","null","key","null","null","16.68693333333358","740.5","416.5","1","1","1","1","1","","",""
"","psychophysics","35","301862","0.0-2.0-2.10-0.10","pj7","[""R""]","","","","","","null","key","null","null","16.687491525423326","740.5","416.5","1","1","1","1","1","","",""
"","psychophysics","36","310199","0.0-2.0-0.11","pj7","[""R""]","","","","","","7633","key","m","m","16.685985971943946","740.5","416.5","2","0","1","1","1","true","",""
"","psychophysics","37","311207","0.0-2.0-1.11","pj7","[""R""]","","","","","","null","key","null","null","16.686542372881252","740.5","416.5","2","0","1","1","1","","",""
"","psychophysics","38","312217","0.0-2.0-2.11-0.11","pj7","[""R""]","","","","","","null","key","null","null","16.686616666666428","740.5","416.5","2","0","1","1","1","","",""
"","psychophysics","39","314837","0.0-2.0-0.12","pj7","[""R""]","","","","","","1916","key","m","m","16.686141025641028","740.5","416.5","2","1","0","1","1","true","",""
"","psychophysics","40","315845","0.0-2.0-1.12","pj7","[""R""]","","","","","","null","key","null","null","16.685372881356518","740.5","416.5","2","1","0","1","1","","",""
"","psychophysics","41","316855","0.0-2.0-2.12-0.12","pj7","[""R""]","","","","","","null","key","null","null","16.687150000000837","740.5","416.5","2","1","0","1","1","","",""
"","psychophysics","42","319876","0.0-2.0-0.13","pj7","[""R""]","","","","","","2317","key","z","z","16.685927777777803","740.5","416.5","2","1","0","0","0","false","",""
"","psychophysics","43","320883","0.0-2.0-1.13","pj7","[""R""]","","","","","","null","key","null","null","16.685966101695065","740.5","416.5","2","1","0","0","0","","",""
"","psychophysics","44","321895","0.0-2.0-3.13-0.13","pj7","[""R""]","","","","","","null","key","null","null","16.687016666666022","740.5","416.5","2","1","0","0","0","","",""
"","psychophysics","45","325716","0.0-2.0-0.14","pj7","[""R""]","","","","","","3118","key","m","m","16.685942982456222","740.5","416.5","2","0","1","1","1","true","",""
"","psychophysics","46","326723","0.0-2.0-1.14","pj7","[""R""]","","","","","","null","key","null","null","16.68622033898245","740.5","416.5","2","0","1","1","1","","",""
"","psychophysics","47","327734","0.0-2.0-2.14-0.14","pj7","[""R""]","","","","","","null","key","null","null","16.686900000000605","740.5","416.5","2","0","1","1","1","","",""
"","psychophysics","48","335410","0.0-2.0-0.15","pj7","[""R""]","","","","","","6973","key","z","z","16.685784313725414","740.5","416.5","2","1","0","1","0","false","",""
"","psychophysics","49","336417","0.0-2.0-1.15","pj7","[""R""]","","","","","","null","key","null","null","16.68549152542403","740.5","416.5","2","1","0","1","0","","",""
"","psychophysics","50","337428","0.0-2.0-3.15-0.15","pj7","[""R""]","","","","","","null","key","null","null","16.686999999999536","740.5","416.5","2","1","0","1","0","","",""
"","psychophysics","51","340899","0.0-2.0-0.16","pj7","[""R""]","","","","","","2768","key","z","z","16.685526570048214","740.5","416.5","1","0","0","1","0","true","",""
"","psychophysics","52","341906","0.0-2.0-1.16","pj7","[""R""]","","","","","","null","key","null","null","16.68550847457639","740.5","416.5","1","0","0","1","0","","",""
"","psychophysics","53","342918","0.0-2.0-2.16-0.16","pj7","[""R""]","","","","","","null","key","null","null","16.68743333333405","740.5","416.5","1","0","0","1","0","","",""
"","psychophysics","54","345042","0.0-2.0-0.17","pj7","[""R""]","","","","","","1421","key","m","m","16.68576984126989","740.5","416.5","1","0","0","1","0","false","",""
"","psychophysics","55","346050","0.0-2.0-1.17","pj7","[""R""]","","","","","","null","key","null","null","16.687508474576674","740.5","416.5","1","0","0","1","0","","",""
"","psychophysics","56","347060","0.0-2.0-3.17-0.17","pj7","[""R""]","","","","","","null","key","null","null","16.68686666666666","740.5","416.5","1","0","0","1","0","","",""
"","psychophysics","57","349894","0.0-2.0-0.18","pj7","[""R""]","","","","","","2130","key","z","z","16.685946745562404","740.5","416.5","2","0","1","1","0","false","",""
"","psychophysics","58","350901","0.0-2.0-1.18","pj7","[""R""]","","","","","","null","key","null","null","16.687423728813883","740.5","416.5","2","0","1","1","0","","",""
"","psychophysics","59","351912","0.0-2.0-3.18-0.18","pj7","[""R""]","","","","","","null","key","null","null","16.68695000000007","740.5","416.5","2","0","1","1","0","","",""
"","psychophysics","60","355717","0.0-2.0-0.19","pj7","[""R""]","","","","","","3101","key","z","z","16.685942731277674","740.5","416.5","1","0","0","1","1","true","",""
"","psychophysics","61","356723","0.0-2.0-1.19","pj7","[""R""]","","","","","","null","key","null","null","16.685898305084635","740.5","416.5","1","0","0","1","1","","",""
"","psychophysics","62","357735","0.0-2.0-2.19-0.19","pj7","[""R""]","","","","","","null","key","null","null","16.686999999999536","740.5","416.5","1","0","0","1","1","","",""
"","psychophysics","63","361859","0.0-2.0-0.20","pj7","[""R""]","","","","","","3420","key","m","m","16.685890243902406","740.5","416.5","2","1","0","0","1","true","",""
"","psychophysics","64","362866","0.0-2.0-1.20","pj7","[""R""]","","","","","","null","key","null","null","16.685983050847426","740.5","416.5","2","1","0","0","1","","",""
"","psychophysics","65","363875","0.0-2.0-2.20-0.20","pj7","[""R""]","","","","","","null","key","null","null","16.68758333333341","740.5","416.5","2","1","0","0","1","","",""
"","psychophysics","66","366947","0.0-2.0-0.21","pj7","[""R""]","","","","","","2367","key","z","z","16.68631147541","740.5","416.5","2","1","1","0","0","false","",""
"","psychophysics","67","367954","0.0-2.0-1.21","pj7","[""R""]","","","","","","null","key","null","null","16.6864406779661","740.5","416.5","2","1","1","0","0","","",""
"","psychophysics","68","368965","0.0-2.0-3.21-0.21","pj7","[""R""]","","","","","","null","key","null","null","16.686549999999503","740.5","416.5","2","1","1","0","0","","",""
"","psychophysics","69","380246","0.0-2.0-0.22","pj7","[""R""]","","","","","","10577","key","m","m","16.6858548148148","740.5","416.5","2","0","0","1","1","true","",""
"","psychophysics","70","381252","0.0-2.0-1.22","pj7","[""R""]","","","","","","null","key","null","null","16.686898305084778","740.5","416.5","2","0","0","1","1","","",""
"","psychophysics","71","382263","0.0-2.0-2.22-0.22","pj7","[""R""]","","","","","","null","key","null","null","16.68713333333338","740.5","416.5","2","0","0","1","1","","",""
"","psychophysics","72","387459","0.0-2.0-0.23","pj7","[""R""]","","","","","","4491","key","m","m","16.68618064516115","740.5","416.5","2","0","1","1","0","true","",""
"","psychophysics","73","388467","0.0-2.0-1.23","pj7","[""R""]","","","","","","null","key","null","null","16.68691525423714","740.5","416.5","2","0","1","1","0","","",""
"","psychophysics","74","389477","0.0-2.0-2.23-0.23","pj7","[""R""]","","","","","","null","key","null","null","16.686083333332984","740.5","416.5","2","0","1","1","0","","",""
"","psychophysics","75","392276","0.0-2.0-0.24","pj7","[""R""]","","","","","","2095","key","z","z","16.686365269461206","740.5","416.5","1","1","1","1","1","true","",""
"","psychophysics","76","393283","0.0-2.0-1.24","pj7","[""R""]","","","","","","null","key","null","null","16.68550847457639","740.5","416.5","1","1","1","1","1","","",""
"","psychophysics","77","394294","0.0-2.0-2.24-0.24","pj7","[""R""]","","","","","","null","key","null","null","16.687099999999432","740.5","416.5","1","1","1","1","1","","",""
"","psychophysics","78","399123","0.0-2.0-0.25","pj7","[""R""]","","","","","","4126","key","m","m","16.68590625000009","740.5","416.5","2","0","1","1","1","true","",""
"","psychophysics","79","400131","0.0-2.0-1.25","pj7","[""R""]","","","","","","null","key","null","null","16.68727118644066","740.5","416.5","2","0","1","1","1","","",""
"","psychophysics","80","401141","0.0-2.0-2.25-0.25","pj7","[""R""]","","","","","","null","key","null","null","16.686416666666627","740.5","416.5","2","0","1","1","1","","",""
"","psychophysics","81","403443","0.0-2.0-0.26","pj7","[""R""]","","","","","","1599","key","m","m","16.68640145985367","740.5","416.5","2","0","0","1","1","true","",""
"","psychophysics","82","404451","0.0-2.0-1.26","pj7","[""R""]","","","","","","null","key","null","null","16.685135593220505","740.5","416.5","2","0","0","1","1","","",""
"","psychophysics","83","405460","0.0-2.0-2.26-0.26","pj7","[""R""]","","","","","","null","key","null","null","16.687149999999868","740.5","416.5","2","0","0","1","1","","",""
"","psychophysics","84","407747","0.0-2.0-0.27","pj7","[""R""]","","","","","","1584","key","z","z","16.6859191176473","740.5","416.5","1","0","1","1","1","true","",""
"","psychophysics","85","408754","0.0-2.0-1.27","pj7","[""R""]","","","","","","null","key","null","null","16.6869322033895","740.5","416.5","1","0","1","1","1","","",""
"","psychophysics","86","409763","0.0-2.0-2.27-0.27","pj7","[""R""]","","","","","","null","key","null","null","16.687216666666792","740.5","416.5","1","0","1","1","1","","",""
"","psychophysics","87","411859","0.0-2.0-0.28","pj7","[""R""]","","","","","","1392","key","z","z","16.686000000000107","740.5","416.5","1","1","1","1","1","true","",""
"","psychophysics","88","412867","0.0-2.0-1.28","pj7","[""R""]","","","","","","null","key","null","null","16.68713333333338","740.5","416.5","1","1","1","1","1","","",""
"","psychophysics","89","413875","0.0-2.0-2.28-0.28","pj7","[""R""]","","","","","","null","key","null","null","16.687508474576674","740.5","416.5","1","1","1","1","1","","",""
"","psychophysics","90","416307","0.0-2.0-0.29","pj7","[""R""]","","","","","","1728","key","m","m","16.686268965517378","740.5","416.5","2","1","0","1","1","true","",""
"","psychophysics","91","417314","0.0-2.0-1.29","pj7","[""R""]","","","","","","null","key","null","null","16.68699999999993","740.5","416.5","2","1","0","1","1","","",""
"","psychophysics","92","418323","0.0-2.0-2.29-0.29","pj7","[""R""]","","","","","","null","key","null","null","16.687099999999432","740.5","416.5","2","1","0","1","1","","",""
"","psychophysics","93","420899","0.0-2.0-0.30","pj7","[""R""]","","","","","","1872","key","m","m","16.68580392156834","740.5","416.5","2","0","1","1","1","true","",""
"","psychophysics","94","421909","0.0-2.0-1.30","pj7","[""R""]","","","","","","null","key","null","null","16.687083333332946","740.5","416.5","2","0","1","1","1","","",""
"","psychophysics","95","422917","0.0-2.0-2.30-0.30","pj7","[""R""]","","","","","","null","key","null","null","16.686084745762578","740.5","416.5","2","0","1","1","1","","",""
"","psychophysics","96","427459","0.0-2.0-0.31","pj7","[""R""]","","","","","","3838","key","z","z","16.686095940959305","740.5","416.5","2","0","0","1","1","false","",""
"","psychophysics","97","428467","0.0-2.0-1.31","pj7","[""R""]","","","","","","null","key","null","null","16.687049999999967","740.5","416.5","2","0","0","1","1","","",""
"","psychophysics","98","429475","0.0-2.0-3.31-0.31","pj7","[""R""]","","","","","","null","key","null","null","16.685932203390344","740.5","416.5","2","0","0","1","1","","",""
"","psychophysics","99","432691","0.0-2.0-0.32","pj7","[""R""]","","","","","","2512","key","z","z","16.68627604166674","740.5","416.5","2","1","0","0","1","false","",""
"","psychophysics","100","433698","0.0-2.0-1.32","pj7","[""R""]","","","","","","null","key","null","null","16.68469491525419","740.5","416.5","2","1","0","0","1","","",""
"","psychophysics","101","434708","0.0-2.0-3.32-0.32","pj7","[""R""]","","","","","","null","key","null","null","16.68748333333351","740.5","416.5","2","1","0","0","1","","",""
"","psychophysics","102","439635","0.0-2.0-0.33","pj7","[""R""]","","","","","","4224","key","z","z","16.685938775510294","740.5","416.5","1","0","1","1","1","true","",""
"","psychophysics","103","440642","0.0-2.0-1.33","pj7","[""R""]","","","","","","null","key","null","null","16.68679661016864","740.5","416.5","1","0","1","1","1","","",""
"","psychophysics","104","441652","0.0-2.0-2.33-0.33","pj7","[""R""]","","","","","","null","key","null","null","16.687000000000506","740.5","416.5","1","0","1","1","1","","",""
"","psychophysics","105","449142","0.0-2.0-0.34","pj7","[""R""]","","","","","","6786","key","m","m","16.685839285714273","740.5","416.5","1","1","1","0","1","false","",""
"","psychophysics","106","450149","0.0-2.0-1.34","pj7","[""R""]","","","","","","null","key","null","null","16.68561016949154","740.5","416.5","1","1","1","0","1","","",""
"","psychophysics","107","451160","0.0-2.0-3.34-0.34","pj7","[""R""]","","","","","","null","key","null","null","16.68620000000034","740.5","416.5","1","1","1","0","1","","",""
"","psychophysics","108","481603","0.0-2.0-0.35","pj7","[""R""]","","","","","","29739","key","z","z","16.68586066922656","740.5","416.5","1","1","1","0","1","true","",""
"","psychophysics","109","482612","0.0-2.0-1.35","pj7","[""R""]","","","","","","null","key","null","null","16.687249999999768","740.5","416.5","1","1","1","0","1","","",""
"","psychophysics","110","483621","0.0-2.0-2.35-0.35","pj7","[""R""]","","","","","","null","key","null","null","16.68718644067787","740.5","416.5","1","1","1","0","1","","",""
"","psychophysics","111","488837","0.0-2.0-0.36","pj7","[""R""]","","","","","","4512","key","m","m","16.68600641025655","740.5","416.5","2","0","0","0","1","true","",""
"","psychophysics","112","489845","0.0-2.0-1.36","pj7","[""R""]","","","","","","null","key","null","null","16.685813559321844","740.5","416.5","2","0","0","0","1","","",""
"","psychophysics","113","490855","0.0-2.0-2.36-0.36","pj7","[""R""]","","","","","","null","key","null","null","16.687016666666022","740.5","416.5","2","0","0","0","1","","",""
"","psychophysics","114","494131","0.0-2.0-0.37","pj7","[""R""]","","","","","","2572","key","m","m","16.685897435897434","740.5","416.5","2","1","0","0","1","true","",""
"","psychophysics","115","495140","0.0-2.0-1.37","pj7","[""R""]","","","","","","null","key","null","null","16.687203389831218","740.5","416.5","2","1","0","0","1","","",""
"","psychophysics","116","496149","0.0-2.0-2.37-0.37","pj7","[""R""]","","","","","","null","key","null","null","16.68630000000024","740.5","416.5","2","1","0","0","1","","",""
"","psychophysics","117","498114","0.0-2.0-0.38","pj7","[""R""]","","","","","","1262","key","z","z","16.686102564102853","740.5","416.5","1","1","1","1","1","true","",""
"","psychophysics","118","499122","0.0-2.0-1.38","pj7","[""R""]","","","","","","null","key","null","null","16.687067796609373","740.5","416.5","1","1","1","1","1","","",""
"","psychophysics","119","500132","0.0-2.0-2.38-0.38","pj7","[""R""]","","","","","","null","key","null","null","16.686816666667195","740.5","416.5","1","1","1","1","1","","",""
"","psychophysics","120","502547","0.0-2.0-0.39","pj7","[""R""]","","","","","","1709","key","m","m","16.685972027971907","740.5","416.5","2","1","0","1","1","true","",""
"","psychophysics","121","503554","0.0-2.0-1.39","pj7","[""R""]","","","","","","null","key","null","null","16.68695000000007","740.5","416.5","2","1","0","1","1","","",""
"","psychophysics","122","504562","0.0-2.0-2.39-0.39","pj7","[""R""]","","","","","","null","key","null","null","16.6872542372883","740.5","416.5","2","1","0","1","1","","",""
"","psychophysics","123","507892","0.0-2.0-0.40","pj7","[""R""]","","","","","","2625","key","m","m","16.686110552763928","740.5","416.5","1","1","1","1","0","false","",""
"","psychophysics","124","508899","0.0-2.0-1.40","pj7","[""R""]","","","","","","null","key","null","null","16.68567796610197","740.5","416.5","1","1","1","1","0","","",""
"","psychophysics","125","509907","0.0-2.0-3.40-0.40","pj7","[""R""]","","","","","","null","key","null","null","16.687050847457996","740.5","416.5","1","1","1","1","0","","",""
"","psychophysics","126","512691","0.0-2.0-0.41","pj7","[""R""]","","","","","","2079","key","m","m","16.685891566265106","740.5","416.5","2","1","0","1","0","true","",""
"","psychophysics","127","513698","0.0-2.0-1.41","pj7","[""R""]","","","","","","null","key","null","null","16.687266666666254","740.5","416.5","2","1","0","1","0","","",""
"","psychophysics","128","514707","0.0-2.0-2.41-0.41","pj7","[""R""]","","","","","","null","key","null","null","16.685796610169483","740.5","416.5","2","1","0","1","0","","",""
"","psychophysics","129","516995","0.0-2.0-0.42","pj7","[""R""]","","","","","","1584","key","m","m","16.68633823529372","740.5","416.5","2","0","1","1","1","true","",""
"","psychophysics","130","518003","0.0-2.0-1.42","pj7","[""R""]","","","","","","null","key","null","null","16.687083333332946","740.5","416.5","2","0","1","1","1","","",""
"","psychophysics","131","519011","0.0-2.0-2.42-0.42","pj7","[""R""]","","","","","","null","key","null","null","16.68645762711846","740.5","416.5","2","0","1","1","1","","",""
"","psychophysics","132","523315","0.0-2.0-0.43","pj7","[""R""]","","","","","","3600","key","m","m","16.686101167315094","740.5","416.5","2","0","1","0","1","true","",""
"","psychophysics","133","524322","0.0-2.0-1.43","pj7","[""R""]","","","","","","null","key","null","null","16.686677966101126","740.5","416.5","2","0","1","0","1","","",""
"","psychophysics","134","525330","0.0-2.0-2.43-0.43","pj7","[""R""]","","","","","","null","key","null","null","16.687150000000837","740.5","416.5","2","0","1","0","1","","",""
"","psychophysics","135","527667","0.0-2.0-0.44","pj7","[""R""]","","","","","","1633","key","m","m","16.686000000000362","740.5","416.5","2","1","1","1","1","true","",""
"","psychophysics","136","528673","0.0-2.0-1.44","pj7","[""R""]","","","","","","null","key","null","null","16.68640677966138","740.5","416.5","2","1","1","1","1","","",""
"","psychophysics","137","529683","0.0-2.0-2.44-0.44","pj7","[""R""]","","","","","","null","key","null","null","16.687216666666792","740.5","416.5","2","1","1","1","1","","",""
"","psychophysics","138","532947","0.0-2.0-0.45","pj7","[""R""]","","","","","","2559","key","m","m","16.685938144329523","740.5","416.5","2","0","1","1","1","true","",""
"","psychophysics","139","533955","0.0-2.0-1.45","pj7","[""R""]","","","","","","null","key","null","null","16.687199999999333","740.5","416.5","2","0","1","1","1","","",""
"","psychophysics","140","534963","0.0-2.0-2.45-0.45","pj7","[""R""]","","","","","","null","key","null","null","16.68615254237301","740.5","416.5","2","0","1","1","1","","",""
"","psychophysics","141","541491","0.0-2.0-0.46","pj7","[""R""]","","","","","","5824","key","z","z","16.68584358974342","740.5","416.5","2","0","0","1","0","false","",""
"","psychophysics","142","542499","0.0-2.0-1.46","pj7","[""R""]","","","","","","null","key","null","null","16.687116666667862","740.5","416.5","2","0","0","1","0","","",""
"","psychophysics","143","543507","0.0-2.0-3.46-0.46","pj7","[""R""]","","","","","","null","key","null","null","16.68605084745687","740.5","416.5","2","0","0","1","0","","",""
"","psychophysics","144","547538","0.0-2.0-0.47","pj7","[""R""]","","","","","","3327","key","m","m","16.686149377593214","740.5","416.5","2","1","0","1","1","true","",""
"","psychophysics","145","548546","0.0-2.0-1.47","pj7","[""R""]","","","","","","null","key","null","null","16.686000000000774","740.5","416.5","2","1","0","1","1","","",""
"","psychophysics","146","549556","0.0-2.0-2.47-0.47","pj7","[""R""]","","","","","","null","key","null","null","16.687350000000638","740.5","416.5","2","1","0","1","1","","",""
"","psychophysics","147","551971","0.0-2.0-0.48","pj7","[""R""]","","","","","","1711","key","z","z","16.68593006992999","740.5","416.5","1","0","1","1","1","true","",""
"","psychophysics","148","552978","0.0-2.0-1.48","pj7","[""R""]","","","","","","null","key","null","null","16.687183333333813","740.5","416.5","1","0","1","1","1","","",""
"","psychophysics","149","553986","0.0-2.0-2.48-0.48","pj7","[""R""]","","","","","","null","key","null","null","16.685983050847426","740.5","416.5","1","0","1","1","1","","",""
"","psychophysics","150","558834","0.0-2.0-0.49","pj7","[""R""]","","","","","","4145","key","z","z","16.68614482758607","740.5","416.5","1","1","1","1","1","true","",""
"","psychophysics","151","559842","0.0-2.0-1.49","pj7","[""R""]","","","","","","null","key","null","null","16.686711864407823","740.5","416.5","1","1","1","1","1","","",""
"","psychophysics","152","560852","0.0-2.0-2.49-0.49","pj7","[""R""]","","","","","","null","key","null","null","16.687066666667427","740.5","416.5","1","1","1","1","1","","",""
"","psychophysics","153","571795","0.0-2.0-0.50","pj7","[""R""]","","","","","","10239","key","m","m","16.68582874617738","740.5","416.5","2","1","1","0","1","true","",""
"","psychophysics","154","572802","0.0-2.0-1.50","pj7","[""R""]","","","","","","null","key","null","null","16.686716666668264","740.5","416.5","2","1","1","0","1","","",""
"","psychophysics","155","573811","0.0-2.0-2.50-0.50","pj7","[""R""]","","","","","","null","key","null","null","16.68605084745687","740.5","416.5","2","1","1","0","1","","",""
"","psychophysics","156","575778","0.0-2.0-0.51","pj7","[""R""]","","","","","","1260","key","m","m","16.686606837606703","740.5","416.5","2","1","1","1","1","true","",""
"","psychophysics","157","576787","0.0-2.0-1.51","pj7","[""R""]","","","","","","null","key","null","null","16.686249999998836","740.5","416.5","2","1","1","1","1","","",""
"","psychophysics","158","577796","0.0-2.0-2.51-0.51","pj7","[""R""]","","","","","","null","key","null","null","16.68684745762671","740.5","416.5","2","1","1","1","1","","",""
"","psychophysics","159","580326","0.0-2.0-0.52","pj7","[""R""]","","","","","","1826","key","z","z","16.68603311258288","740.5","416.5","1","1","1","1","1","true","",""
"","psychophysics","160","581332","0.0-2.0-1.52","pj7","[""R""]","","","","","","null","key","null","null","16.68622033898245","740.5","416.5","1","1","1","1","1","","",""
"","psychophysics","161","582344","0.0-2.0-2.52-0.52","pj7","[""R""]","","","","","","null","key","null","null","16.68713333333338","740.5","416.5","1","1","1","1","1","","",""
"","psychophysics","162","585187","0.0-2.0-0.53","pj7","[""R""]","","","","","","2139","key","m","m","16.685662721893365","740.5","416.5","2","0","0","1","1","true","",""
"","psychophysics","163","586194","0.0-2.0-1.53","pj7","[""R""]","","","","","","null","key","null","null","16.68688135593143","740.5","416.5","2","0","0","1","1","","",""
"","psychophysics","164","587203","0.0-2.0-2.53-0.53","pj7","[""R""]","","","","","","null","key","null","null","16.686250000000776","740.5","416.5","2","0","0","1","1","","",""
"","psychophysics","165","590706","0.0-2.0-0.54","pj7","[""R""]","","","","","","2800","key","m","m","16.685923444976112","740.5","416.5","1","0","0","0","1","false","",""
"","psychophysics","166","591714","0.0-2.0-1.54","pj7","[""R""]","","","","","","null","key","null","null","16.686915254238126","740.5","416.5","1","0","0","0","1","","",""
"","psychophysics","167","592723","0.0-2.0-3.54-0.54","pj7","[""R""]","","","","","","null","key","null","null","16.687183333333813","740.5","416.5","1","0","0","0","1","","",""
"","psychophysics","168","597891","0.0-2.0-0.55","pj7","[""R""]","","","","","","4463","key","m","m","16.685938311688595","740.5","416.5","1","1","1","1","0","false","",""
"","psychophysics","169","598898","0.0-2.0-1.55","pj7","[""R""]","","","","","","null","key","null","null","16.687649999999362","740.5","416.5","1","1","1","1","0","","",""
"","psychophysics","170","599907","0.0-2.0-3.55-0.55","pj7","[""R""]","","","","","","null","key","null","null","16.68610169491494","740.5","416.5","1","1","1","1","0","","",""
"","psychophysics","171","605346","0.0-2.0-0.56","pj7","[""R""]","","","","","","4736","key","z","z","16.68605846153823","740.5","416.5","1","0","1","0","1","true","",""
"","psychophysics","172","606355","0.0-2.0-1.56","pj7","[""R""]","","","","","","null","key","null","null","16.68768333333428","740.5","416.5","1","0","1","0","1","","",""
"","psychophysics","173","607364","0.0-2.0-2.56-0.56","pj7","[""R""]","","","","","","null","key","null","null","16.685915254237983","740.5","416.5","1","0","1","0","1","","",""
"","psychophysics","174","612246","0.0-2.0-0.57","pj7","[""R""]","","","","","","4179","key","m","m","16.68613013698662","740.5","416.5","1","0","0","1","0","false","",""
"","psychophysics","175","613253","0.0-2.0-1.57","pj7","[""R""]","","","","","","null","key","null","null","16.686423728812755","740.5","416.5","1","0","0","1","0","","",""
"","psychophysics","176","614264","0.0-2.0-3.57-0.57","pj7","[""R""]","","","","","","null","key","null","null","16.686650000000373","740.5","416.5","1","0","0","1","0","","",""
"","psychophysics","177","617170","0.0-2.0-0.58","pj7","[""R""]","","","","","","2203","key","z","z","16.6862254335257","740.5","416.5","1","0","0","0","0","true","",""
"","psychophysics","178","618177","0.0-2.0-1.58","pj7","[""R""]","","","","","","null","key","null","null","16.68616949152438","740.5","416.5","1","0","0","0","0","","",""
"","psychophysics","179","619186","0.0-2.0-2.58-0.58","pj7","[""R""]","","","","","","null","key","null","null","16.687183333333813","740.5","416.5","1","0","0","0","0","","",""
"","psychophysics","180","621682","0.0-2.0-0.59","pj7","[""R""]","","","","","","1792","key","m","m","16.685398648648736","740.5","416.5","2","1","1","1","1","true","",""
"","psychophysics","181","622690","0.0-2.0-1.59","pj7","[""R""]","","","","","","null","key","null","null","16.685683333334357","740.5","416.5","2","1","1","1","1","","",""
"","psychophysics","182","623698","0.0-2.0-2.59-0.59","pj7","[""R""]","","","","","","null","key","null","null","16.685559322035445","740.5","416.5","2","1","1","1","1","","",""
"","psychophysics","183","626178","0.0-2.0-0.60","pj7","[""R""]","","","","","","1777","key","z","z","16.686432432432067","740.5","416.5","1","1","0","1","1","true","",""
"","psychophysics","184","627186","0.0-2.0-1.60","pj7","[""R""]","","","","","","null","key","null","null","16.687305084747358","740.5","416.5","1","1","0","1","1","","",""
"","psychophysics","185","628197","0.0-2.0-2.60-0.60","pj7","[""R""]","","","","","","null","key","null","null","16.686983333334016","740.5","416.5","1","1","0","1","1","","",""
"","psychophysics","186","631027","0.0-2.0-0.61","pj7","[""R""]","","","","","","2127","key","z","z","16.685910714285065","740.5","416.5","2","0","0","0","1","false","",""
"","psychophysics","187","632035","0.0-2.0-1.61","pj7","[""R""]","","","","","","null","key","null","null","16.68666666666589","740.5","416.5","2","0","0","0","1","","",""
"","psychophysics","188","633044","0.0-2.0-3.61-0.61","pj7","[""R""]","","","","","","null","key","null","null","16.68613559321966","740.5","416.5","2","0","0","0","1","","",""
"","psychophysics","189","635619","0.0-2.0-0.62","pj7","[""R""]","","","","","","1871","key","z","z","16.686359477123652","740.5","416.5","1","0","1","1","1","true","",""
"","psychophysics","190","636627","0.0-2.0-1.62","pj7","[""R""]","","","","","","null","key","null","null","16.687233333334248","740.5","416.5","1","0","1","1","1","","",""
"","psychophysics","191","637635","0.0-2.0-2.62-0.62","pj7","[""R""]","","","","","","null","key","null","null","16.68640677966138","740.5","416.5","1","0","1","1","1","","",""
"","psychophysics","192","639477","0.0-2.0-0.63","pj7","[""R""]","","","","","","1134","key","z","z","16.686572727273134","740.5","416.5","1","0","0","1","1","true","",""
"","psychophysics","193","640484","0.0-2.0-1.63","pj7","[""R""]","","","","","","null","key","null","null","16.686016949152148","740.5","416.5","1","0","0","1","1","","",""
"","psychophysics","194","641495","0.0-2.0-2.63-0.63","pj7","[""R""]","","","","","","null","key","null","null","16.686983333334016","740.5","416.5","1","0","0","1","1","","",""
"","psychophysics","195","644627","0.0-2.0-0.64","pj7","[""R""]","","","","","","2428","key","m","m","16.685930107526797","740.5","416.5","2","1","1","1","1","true","",""
"","psychophysics","196","645634","0.0-2.0-1.64","pj7","[""R""]","","","","","","null","key","null","null","16.686900000000605","740.5","416.5","2","1","1","1","1","","",""
"","psychophysics","197","646643","0.0-2.0-2.64-0.64","pj7","[""R""]","","","","","","null","key","null","null","16.68732203389676","740.5","416.5","2","1","1","1","1","","",""
"","psychophysics","198","648626","0.0-2.0-0.65","pj7","[""R""]","","","","","","1280","key","m","m","16.686050847457857","740.5","416.5","2","1","1","1","1","true","",""
"","psychophysics","199","649634","0.0-2.0-1.65","pj7","[""R""]","","","","","","null","key","null","null","16.687135593221775","740.5","416.5","2","1","1","1","1","","",""
"","psychophysics","200","650643","0.0-2.0-2.65-0.65","pj7","[""R""]","","","","","","null","key","null","null","16.686566666665023","740.5","416.5","2","1","1","1","1","","",""
"","psychophysics","201","656115","0.0-2.0-0.66","pj7","[""R""]","","","","","","4768","key","z","z","16.685847094801215","740.5","416.5","2","0","0","0","1","false","",""
"","psychophysics","202","657121","0.0-2.0-1.66","pj7","[""R""]","","","","","","null","key","null","null","16.685983050847426","740.5","416.5","2","0","0","0","1","","",""
"","psychophysics","203","658131","0.0-2.0-3.66-0.66","pj7","[""R""]","","","","","","null","key","null","null","16.686816666667195","740.5","416.5","2","0","0","0","1","","",""
"","psychophysics","204","660258","0.0-2.0-0.67","pj7","[""R""]","","","","","","1423","key","z","z","16.685412698412417","740.5","416.5","2","0","0","0","1","false","",""
"","psychophysics","205","661268","0.0-2.0-1.67","pj7","[""R""]","","","","","","null","key","null","null","16.68731666666766","740.5","416.5","2","0","0","0","1","","",""
"","psychophysics","206","662276","0.0-2.0-3.67-0.67","pj7","[""R""]","","","","","","null","key","null","null","16.68588135593326","740.5","416.5","2","0","0","0","1","","",""
"","psychophysics","207","663938","0.0-2.0-0.68","pj7","[""R""]","","","","","","959","key","m","m","16.686747474747598","740.5","416.5","1","0","1","0","0","false","",""
"","psychophysics","208","664946","0.0-2.0-1.68","pj7","[""R""]","","","","","","null","key","null","null","16.68615254237301","740.5","416.5","1","0","1","0","0","","",""
"","psychophysics","209","665957","0.0-2.0-3.68-0.68","pj7","[""R""]","","","","","","null","key","null","null","16.686733333333784","740.5","416.5","1","0","1","0","0","","",""
"","psychophysics","210","669891","0.0-2.0-0.69","pj7","[""R""]","","","","","","3231","key","m","m","16.685794871794975","740.5","416.5","2","1","0","1","1","true","",""
"","psychophysics","211","670899","0.0-2.0-1.69","pj7","[""R""]","","","","","","null","key","null","null","16.68804999999896","740.5","416.5","2","1","0","1","1","","",""
"","psychophysics","212","671909","0.0-2.0-2.69-0.69","pj7","[""R""]","","","","","","null","key","null","null","16.687254237287316","740.5","416.5","2","1","0","1","1","","",""
"","psychophysics","213","680131","0.0-2.0-0.70","pj7","[""R""]","","","","","","7516","key","z","z","16.68597154471549","740.5","416.5","1","0","1","0","1","true","",""
"","psychophysics","214","681141","0.0-2.0-1.70","pj7","[""R""]","","","","","","null","key","null","null","16.687049999999967","740.5","416.5","1","0","1","0","1","","",""
"","psychophysics","215","682149","0.0-2.0-2.70-0.70","pj7","[""R""]","","","","","","null","key","null","null","16.68566101694961","740.5","416.5","1","0","1","0","1","","",""
"","psychophysics","216","684114","0.0-2.0-0.71","pj7","[""R""]","","","","","","1262","key","z","z","16.686256410256547","740.5","416.5","2","1","1","0","0","false","",""
"","psychophysics","217","685122","0.0-2.0-1.71","pj7","[""R""]","","","","","","null","key","null","null","16.68589830508661","740.5","416.5","2","1","1","0","0","","",""
"","psychophysics","218","686132","0.0-2.0-3.71-0.71","pj7","[""R""]","","","","","","null","key","null","null","16.686233333333316","740.5","416.5","2","1","1","0","0","","",""
"","psychophysics","219","692788","0.0-2.0-0.72","pj7","[""R""]","","","","","","5954","key","m","m","16.685816582914466","740.5","416.5","1","0","0","0","1","false","",""
"","psychophysics","220","693795","0.0-2.0-1.72","pj7","[""R""]","","","","","","null","key","null","null","16.687644067796548","740.5","416.5","1","0","0","0","1","","",""
"","psychophysics","221","694807","0.0-2.0-3.72-0.72","pj7","[""R""]","","","","","","null","key","null","null","16.687100000000402","740.5","416.5","1","0","0","0","1","","",""
"","psychophysics","222","696914","0.0-2.0-0.73","pj7","[""R""]","","","","","","1404","key","m","m","16.68582400000002","740.5","416.5","2","1","1","1","1","true","",""
"","psychophysics","223","697922","0.0-2.0-1.73","pj7","[""R""]","","","","","","null","key","null","null","16.6866779661031","740.5","416.5","2","1","1","1","1","","",""
"","psychophysics","224","698931","0.0-2.0-2.73-0.73","pj7","[""R""]","","","","","","null","key","null","null","16.686083333333954","740.5","416.5","2","1","1","1","1","","",""
"","psychophysics","225","701650","0.0-2.0-0.74","pj7","[""R""]","","","","","","2015","key","z","z","16.68582716049414","740.5","416.5","2","0","1","1","0","false","",""
"","psychophysics","226","702659","0.0-2.0-1.74","pj7","[""R""]","","","","","","null","key","null","null","16.686203389829103","740.5","416.5","2","0","1","1","0","","",""
"","psychophysics","227","703668","0.0-2.0-3.74-0.74","pj7","[""R""]","","","","","","null","key","null","null","16.687283333332743","740.5","416.5","2","0","1","1","0","","",""
"","psychophysics","228","707858","0.0-2.0-0.75","pj7","[""R""]","","","","","","3487","key","z","z","16.685904000000097","740.5","416.5","2","1","0","1","0","false","",""
"","psychophysics","229","708865","0.0-2.0-1.75","pj7","[""R""]","","","","","","null","key","null","null","16.68652542372889","740.5","416.5","2","1","0","1","0","","",""
"","psychophysics","230","709875","0.0-2.0-3.75-0.75","pj7","[""R""]","","","","","","null","key","null","null","16.686533333333987","740.5","416.5","2","1","0","1","0","","",""
"","psychophysics","231","711970","0.0-2.0-0.76","pj7","[""R""]","","","","","","1393","key","m","m","16.686451612903188","740.5","416.5","2","0","0","1","1","true","",""
"","psychophysics","232","712979","0.0-2.0-1.76","pj7","[""R""]","","","","","","null","key","null","null","16.68693333333164","740.5","416.5","2","0","0","1","1","","",""
"","psychophysics","233","713987","0.0-2.0-2.76-0.76","pj7","[""R""]","","","","","","null","key","null","null","16.686067796610217","740.5","416.5","2","0","0","1","1","","",""
"","psychophysics","234","716182","0.0-2.0-0.77","pj7","[""R""]","","","","","","1491","key","z","z","16.685740458014784","740.5","416.5","1","1","0","1","1","true","",""
"","psychophysics","235","717189","0.0-2.0-1.77","pj7","[""R""]","","","","","","null","key","null","null","16.686050847458844","740.5","416.5","1","1","0","1","1","","",""
"","psychophysics","236","718200","0.0-2.0-2.77-0.77","pj7","[""R""]","","","","","","null","key","null","null","16.687166666666357","740.5","416.5","1","1","0","1","1","","",""
"","psychophysics","237","722130","0.0-2.0-0.78","pj7","[""R""]","","","","","","3227","key","z","z","16.685760683760655","740.5","416.5","1","1","1","1","1","true","",""
"","psychophysics","238","723139","0.0-2.0-1.78","pj7","[""R""]","","","","","","null","key","null","null","16.686900000000605","740.5","416.5","1","1","1","1","1","","",""
"","psychophysics","239","724147","0.0-2.0-2.78-0.78","pj7","[""R""]","","","","","","null","key","null","null","16.685508474577375","740.5","416.5","1","1","1","1","1","","",""
"","psychophysics","240","727202","0.0-2.0-0.79","pj7","[""R""]","","","","","","2351","key","m","m","16.686137362637243","740.5","416.5","2","1","0","1","0","true","",""
"","psychophysics","241","728212","0.0-2.0-1.79","pj7","[""R""]","","","","","","null","key","null","null","16.686999999999536","740.5","416.5","2","1","0","1","0","","",""
"","psychophysics","242","729220","0.0-2.0-2.79-0.79","pj7","[""R""]","","","","","","null","key","null","null","16.685711864405707","740.5","416.5","2","1","0","1","0","","",""
"","psychophysics","243","731218","0.0-2.0-0.80","pj7","[""R""]","","","","","","1293","key","z","z","16.686512605042566","740.5","416.5","1","1","1","1","1","true","",""
"","psychophysics","244","732225","0.0-2.0-1.80","pj7","[""R""]","","","","","","null","key","null","null","16.686016949152148","740.5","416.5","1","1","1","1","1","","",""
"","psychophysics","245","733236","0.0-2.0-2.80-0.80","pj7","[""R""]","","","","","","null","key","null","null","16.686883333333146","740.5","416.5","1","1","1","1","1","","",""
"","psychophysics","246","736067","0.0-2.0-0.81","pj7","[""R""]","","","","","","2127","key","z","z","16.68601785714314","740.5","416.5","1","0","0","1","0","true","",""
"","psychophysics","247","737074","0.0-2.0-1.81","pj7","[""R""]","","","","","","null","key","null","null","16.686750000001243","740.5","416.5","1","0","0","1","0","","",""
"","psychophysics","248","738082","0.0-2.0-2.81-0.81","pj7","[""R""]","","","","","","null","key","null","null","16.685966101694078","740.5","416.5","1","0","0","1","0","","",""
"","psychophysics","249","740786","0.0-2.0-0.82","pj7","[""R""]","","","","","","2001","key","m","m","16.686440993788775","740.5","416.5","1","0","0","0","0","false","",""
"","psychophysics","250","741794","0.0-2.0-1.82","pj7","[""R""]","","","","","","null","key","null","null","16.686716666668264","740.5","416.5","1","0","0","0","0","","",""
"","psychophysics","251","742802","0.0-2.0-3.82-0.82","pj7","[""R""]","","","","","","null","key","null","null","16.686813559321987","740.5","416.5","1","0","0","0","0","","",""
"","psychophysics","252","748626","0.0-2.0-0.83","pj7","[""R""]","","","","","","5120","key","m","m","16.686135057471333","740.5","416.5","2","1","1","0","1","true","",""
"","psychophysics","253","749636","0.0-2.0-1.83","pj7","[""R""]","","","","","","null","key","null","null","16.68751666666746","740.5","416.5","2","1","1","0","1","","",""
"","psychophysics","254","750644","0.0-2.0-2.83-0.83","pj7","[""R""]","","","","","","null","key","null","null","16.68593220339133","740.5","416.5","2","1","1","0","1","","",""
"","psychophysics","255","753491","0.0-2.0-0.84","pj7","[""R""]","","","","","","2144","key","m","m","16.68618823529413","740.5","416.5","2","1","1","0","1","true","",""
"","psychophysics","256","754499","0.0-2.0-1.84","pj7","[""R""]","","","","","","null","key","null","null","16.685508474577375","740.5","416.5","2","1","1","0","1","","",""
"","psychophysics","257","755510","0.0-2.0-2.84-0.84","pj7","[""R""]","","","","","","null","key","null","null","16.687066666665487","740.5","416.5","2","1","1","0","1","","",""
"","psychophysics","258","758018","0.0-2.0-0.85","pj7","[""R""]","","","","","","1805","key","m","m","16.685657718120417","740.5","416.5","2","0","1","0","1","true","",""
"","psychophysics","259","759027","0.0-2.0-1.85","pj7","[""R""]","","","","","","null","key","null","null","16.68698305084757","740.5","416.5","2","0","1","0","1","","",""
"","psychophysics","260","760036","0.0-2.0-2.85-0.85","pj7","[""R""]","","","","","","null","key","null","null","16.686549999999503","740.5","416.5","2","0","1","0","1","","",""
"","psychophysics","261","762658","0.0-2.0-0.86","pj7","[""R""]","","","","","","1919","key","m","m","16.685673076922868","740.5","416.5","2","0","1","1","1","true","",""
"","psychophysics","262","763669","0.0-2.0-1.86","pj7","[""R""]","","","","","","null","key","null","null","16.686966666666557","740.5","416.5","2","0","1","1","1","","",""
"","psychophysics","263","764677","0.0-2.0-2.86-0.86","pj7","[""R""]","","","","","","null","key","null","null","16.684406779661096","740.5","416.5","2","0","1","1","1","","",""
"","psychophysics","264","770706","0.0-2.0-0.87","pj7","[""R""]","","","","","","5325","key","m","m","16.686047222222097","740.5","416.5","1","1","0","1","0","false","",""
"","psychophysics","265","771715","0.0-2.0-1.87","pj7","[""R""]","","","","","","null","key","null","null","16.687149999998898","740.5","416.5","1","1","0","1","0","","",""
"","psychophysics","266","772724","0.0-2.0-3.87-0.87","pj7","[""R""]","","","","","","null","key","null","null","16.68698305084757","740.5","416.5","1","1","0","1","0","","",""
"","psychophysics","267","775634","0.0-2.0-0.88","pj7","[""R""]","","","","","","2204","key","m","m","16.68620114942515","740.5","416.5","1","1","0","0","0","false","",""
"","psychophysics","268","776641","0.0-2.0-1.88","pj7","[""R""]","","","","","","null","key","null","null","16.685593220338195","740.5","416.5","1","1","0","0","0","","",""
"","psychophysics","269","777652","0.0-2.0-3.88-0.88","pj7","[""R""]","","","","","","null","key","null","null","16.68683333333271","740.5","416.5","1","1","0","0","0","","",""
"","psychophysics","270","780882","0.0-2.0-0.89","pj7","[""R""]","","","","","","2526","key","z","z","16.685828125000018","740.5","416.5","1","0","1","1","1","true","",""
"","psychophysics","271","781890","0.0-2.0-1.89","pj7","[""R""]","","","","","","null","key","null","null","16.68620000000034","740.5","416.5","1","0","1","1","1","","",""
"","psychophysics","272","782899","0.0-2.0-2.89-0.89","pj7","[""R""]","","","","","","null","key","null","null","16.685508474577375","740.5","416.5","1","0","1","1","1","","",""
"","psychophysics","273","785346","0.0-2.0-0.90","pj7","[""R""]","","","","","","1743","key","z","z","16.68652054794493","740.5","416.5","1","1","0","1","0","true","",""
"","psychophysics","274","786354","0.0-2.0-1.90","pj7","[""R""]","","","","","","null","key","null","null","16.686999999998942","740.5","416.5","1","1","0","1","0","","",""
"","psychophysics","275","787364","0.0-2.0-2.90-0.90","pj7","[""R""]","","","","","","null","key","null","null","16.687049999999967","740.5","416.5","1","1","0","1","0","","",""
"","psychophysics","276","789794","0.0-2.0-0.91","pj7","[""R""]","","","","","","1727","key","z","z","16.685819444444657","740.5","416.5","1","1","0","1","1","true","",""
"","psychophysics","277","790802","0.0-2.0-1.91","pj7","[""R""]","","","","","","null","key","null","null","16.685899999999673","740.5","416.5","1","1","0","1","1","","",""
"","psychophysics","278","791810","0.0-2.0-2.91-0.91","pj7","[""R""]","","","","","","null","key","null","null","16.68691525423615","740.5","416.5","1","1","0","1","1","","",""
"","psychophysics","279","808306","0.0-2.0-0.92","pj7","[""R""]","","","","","","15791","key","m","m","16.68589676113357","740.5","416.5","1","1","0","1","0","false","",""
"","psychophysics","280","809314","0.0-2.0-1.92","pj7","[""R""]","","","","","","null","key","null","null","16.686949152540873","740.5","416.5","1","1","0","1","0","","",""
"","psychophysics","281","810323","0.0-2.0-3.92-0.92","pj7","[""R""]","","","","","","null","key","null","null","16.687833333333643","740.5","416.5","1","1","0","1","0","","",""
"","psychophysics","282","815938","0.0-2.0-0.93","pj7","[""R""]","","","","","","4909","key","m","m","16.68569850746278","740.5","416.5","1","1","1","1","0","false","",""
"","psychophysics","283","816947","0.0-2.0-1.93","pj7","[""R""]","","","","","","null","key","null","null","16.687049999999967","740.5","416.5","1","1","1","1","0","","",""
"","psychophysics","284","817955","0.0-2.0-3.93-0.93","pj7","[""R""]","","","","","","null","key","null","null","16.686050847458844","740.5","416.5","1","1","1","1","0","","",""
"","psychophysics","285","823589","0.0-2.0-0.94","pj7","[""R""]","","","","","","4930","key","m","m","16.686077151335265","740.5","416.5","1","1","0","0","1","false","",""
"","psychophysics","286","824596","0.0-2.0-1.94","pj7","[""R""]","","","","","","null","key","null","null","16.68589830508661","740.5","416.5","1","1","0","0","1","","",""
"","psychophysics","287","825607","0.0-2.0-3.94-0.94","pj7","[""R""]","","","","","","null","key","null","null","16.68733333333318","740.5","416.5","1","1","0","0","1","","",""
"","psychophysics","288","830597","0.0-2.0-0.95","pj7","[""R""]","","","","","","4287","key","m","m","16.68588926174503","740.5","416.5","2","0","1","0","1","true","",""
"","psychophysics","289","831604","0.0-2.0-1.95","pj7","[""R""]","","","","","","null","key","null","null","16.68627118644052","740.5","416.5","2","0","1","0","1","","",""
"","psychophysics","290","832615","0.0-2.0-2.95-0.95","pj7","[""R""]","","","","","","null","key","null","null","16.686883333333146","740.5","416.5","2","0","1","0","1","","",""
"","psychophysics","291","837714","0.0-2.0-0.96","pj7","[""R""]","","","","","","4394","key","z","z","16.68589473684245","740.5","416.5","1","1","1","1","0","true","",""
"","psychophysics","292","838723","0.0-2.0-1.96","pj7","[""R""]","","","","","","null","key","null","null","16.6869499999991","740.5","416.5","1","1","1","1","0","","",""
"","psychophysics","293","839731","0.0-2.0-2.96-0.96","pj7","[""R""]","","","","","","null","key","null","null","16.685779661017122","740.5","416.5","1","1","1","1","0","","",""
"","psychophysics","294","844370","0.0-2.0-0.97","pj7","[""R""]","","","","","","3934","key","z","z","16.686050541516114","740.5","416.5","1","0","1","1","0","true","",""
"","psychophysics","295","845379","0.0-2.0-1.97","pj7","[""R""]","","","","","","null","key","null","null","16.686899999998666","740.5","416.5","1","0","1","1","0","","",""
"","psychophysics","296","846387","0.0-2.0-2.97-0.97","pj7","[""R""]","","","","","","null","key","null","null","16.685677966100986","740.5","416.5","1","0","1","1","0","","",""
"","psychophysics","297","852290","0.0-2.0-0.98","pj7","[""R""]","","","","","","5199","key","z","z","16.686045325779034","740.5","416.5","2","0","0","1","0","false","",""
"","psychophysics","298","853297","0.0-2.0-1.98","pj7","[""R""]","","","","","","null","key","null","null","16.68610169491494","740.5","416.5","2","0","0","1","0","","",""
"","psychophysics","299","854308","0.0-2.0-3.98-0.98","pj7","[""R""]","","","","","","null","key","null","null","16.687100000000402","740.5","416.5","2","0","0","1","0","","",""
"","psychophysics","300","859985","0.0-2.0-0.99","pj7","[""R""]","","","","","","4974","key","m","m","16.685867256637056","740.5","416.5","1","0","1","0","1","false","",""
"","psychophysics","301","860994","0.0-2.0-1.99","pj7","[""R""]","","","","","","null","key","null","null","16.688999999999226","740.5","416.5","1","0","1","0","1","","",""
"","psychophysics","302","862003","0.0-2.0-3.99-0.99","pj7","[""R""]","","","","","","null","key","null","null","16.6853166666658","740.5","416.5","1","0","1","0","1","","",""
"","html-keyboard-response","303","892009","0.0-2.0-4.99-0.99","pj7","[""R""]","","","","","","null","","","null","","","","","","","","","","<p>You have finished block 1 of 5.<p>You correctly predicted 67% of the races.<p>On the next screen, you will be given a 30 second break. Press the <b>g</b> key to start your break.",""
"","html-keyboard-response","304","893011","0.0-2.0-4.99-1.99-0.99","pj7","[""R""]","","","","","","null","","","null","","","","","","","","","","<p>The experiment will resume in 30 seconds. ",""
"","html-keyboard-response","305","894016","0.0-2.0-4.99-1.99-1.99","pj7","[""R""]","","","","","","null","","","null","","","","","","","","","","<p>The experiment will resume in 29 seconds. ",""
"","html-keyboard-response","306","895018","0.0-2.0-4.99-1.99-2.99","pj7","[""R""]","","","","","","null","","","null","","","","","","","","","","<p>The experiment will resume in 28 seconds. ",""
"","html-keyboard-response","307","896021","0.0-2.0-4.99-1.99-3.99","pj7","[""R""]","","","","","","null","","","null","","","","","","","","","","<p>The experiment will resume in 27 seconds. ",""
"","html-keyboard-response","308","897024","0.0-2.0-4.99-1.99-4.99","pj7","[""R""]","","","","","","null","","","null","","","","","","","","","","<p>The experiment will resume in 26 seconds. ",""
"","html-keyboard-response","309","898025","0.0-2.0-4.99-1.99-5.99","pj7","[""R""]","","","","","","null","","","null","","","","","","","","","","<p>The experiment will resume in 25 seconds. ",""
"","html-keyboard-response","310","899027","0.0-2.0-4.99-1.99-6.99","pj7","[""R""]","","","","","","null","","","null","","","","","","","","","","<p>The experiment will resume in 24 seconds. ",""
"","html-keyboard-response","311","900028","0.0-2.0-4.99-1.99-7.99","pj7","[""R""]","","","","","","null","","","null","","","","","","","","","","<p>The experiment will resume in 23 seconds. ",""
"","html-keyboard-response","312","901030","0.0-2.0-4.99-1.99-8.99","pj7","[""R""]","","","","","","null","","","null","","","","","","","","","","<p>The experiment will resume in 22 seconds. ",""
"","html-keyboard-response","313","902032","0.0-2.0-4.99-1.99-9.99","pj7","[""R""]","","","","","","null","","","null","","","","","","","","","","<p>The experiment will resume in 21 seconds. ",""
"","html-keyboard-response","314","903034","0.0-2.0-4.99-1.99-10.99","pj7","[""R""]","","","","","","null","","","null","","","","","","","","","","<p>The experiment will resume in 20 seconds. ",""
"","html-keyboard-response","315","904037","0.0-2.0-4.99-1.99-11.99","pj7","[""R""]","","","","","","null","","","null","","","","","","","","","","<p>The experiment will resume in 19 seconds. ",""
"","html-keyboard-response","316","905038","0.0-2.0-4.99-1.99-12.99","pj7","[""R""]","","","","","","null","","","null","","","","","","","","","","<p>The experiment will resume in 18 seconds. ",""
"","html-keyboard-response","317","906040","0.0-2.0-4.99-1.99-13.99","pj7","[""R""]","","","","","","null","","","null","","","","","","","","","","<p>The experiment will resume in 17 seconds. ",""
"","html-keyboard-response","318","907042","0.0-2.0-4.99-1.99-14.99","pj7","[""R""]","","","","","","null","","","null","","","","","","","","","","<p>The experiment will resume in 16 seconds. ",""
"","html-keyboard-response","319","908044","0.0-2.0-4.99-1.99-15.99","pj7","[""R""]","","","","","","null","","","null","","","","","","","","","","<p>The experiment will resume in 15 seconds. ",""
"","html-keyboard-response","320","909047","0.0-2.0-4.99-1.99-16.99","pj7","[""R""]","","","","","","null","","","null","","","","","","","","","","<p>The experiment will resume in 14 seconds. ",""
"","html-keyboard-response","321","910049","0.0-2.0-4.99-1.99-17.99","pj7","[""R""]","","","","","","null","","","null","","","","","","","","","","<p>The experiment will resume in 13 seconds. ",""
"","html-keyboard-response","322","911050","0.0-2.0-4.99-1.99-18.99","pj7","[""R""]","","","","","","null","","","null","","","","","","","","","","<p>The experiment will resume in 12 seconds. ",""
"","html-keyboard-response","323","912051","0.0-2.0-4.99-1.99-19.99","pj7","[""R""]","","","","","","null","","","null","","","","","","","","","","<p>The experiment will resume in 11 seconds. ",""
"","html-keyboard-response","324","913053","0.0-2.0-4.99-1.99-20.99","pj7","[""R""]","","","","","","null","","","null","","","","","","","","","","<p>The experiment will resume in 10 seconds. ",""
"","html-keyboard-response","325","914055","0.0-2.0-4.99-1.99-21.99","pj7","[""R""]","","","","","","null","","","null","","","","","","","","","","<p>The experiment will resume in 9 seconds. ",""
"","html-keyboard-response","326","915056","0.0-2.0-4.99-1.99-22.99","pj7","[""R""]","","","","","","null","","","null","","","","","","","","","","<p>The experiment will resume in 8 seconds. ",""
"","html-keyboard-response","327","916058","0.0-2.0-4.99-1.99-23.99","pj7","[""R""]","","","","","","null","","","null","","","","","","","","","","<p>The experiment will resume in 7 seconds. ",""
"","html-keyboard-response","328","917060","0.0-2.0-4.99-1.99-24.99","pj7","[""R""]","","","","","","null","","","null","","","","","","","","","","<p>The experiment will resume in 6 seconds. ",""
"","html-keyboard-response","329","918062","0.0-2.0-4.99-1.99-25.99","pj7","[""R""]","","","","","","null","","","null","","","","","","","","","","<p>The experiment will resume in 5 seconds. ",""
"","html-keyboard-response","330","919064","0.0-2.0-4.99-1.99-26.99","pj7","[""R""]","","","","","","null","","","null","","","","","","","","","","<p>The experiment will resume in 4 seconds. ",""
"","html-keyboard-response","331","920066","0.0-2.0-4.99-1.99-27.99","pj7","[""R""]","","","","","","null","","","null","","","","","","","","","","<p>The experiment will resume in 3 seconds. ",""
"","html-keyboard-response","332","921067","0.0-2.0-4.99-1.99-28.99","pj7","[""R""]","","","","","","null","","","null","","","","","","","","","","<p>The experiment will resume in 2 seconds. ",""
"","html-keyboard-response","333","922068","0.0-2.0-4.99-1.99-29.99","pj7","[""R""]","","","","","","null","","","null","","","","","","","","","","<p>The experiment will resume in 1 seconds. ",""
"","psychophysics","334","924754","0.0-2.0-0.100","pj7","[""R""]","","","","","","1983","key","z","z","16.68881987577654","740.5","416.5","1","0","0","1","0","true","",""
"","psychophysics","335","925761","0.0-2.0-1.100","pj7","[""R""]","","","","","","null","key","null","null","16.686593220338334","740.5","416.5","1","0","0","1","0","","",""
"","psychophysics","336","926773","0.0-2.0-2.100-0.100","pj7","[""R""]","","","","","","null","key","null","null","16.687049999999967","740.5","416.5","1","0","0","1","0","","",""
"","psychophysics","337","928865","0.0-2.0-0.101","pj7","[""R""]","","","","","","1388","key","m","m","16.68654838709664","740.5","416.5","2","1","1","0","1","true","",""
"","psychophysics","338","929872","0.0-2.0-1.101","pj7","[""R""]","","","","","","null","key","null","null","16.68584745762854","740.5","416.5","2","1","1","0","1","","",""
"","psychophysics","339","930881","0.0-2.0-2.101-0.101","pj7","[""R""]","","","","","","null","key","null","null","16.687049999999967","740.5","416.5","2","1","1","0","1","","",""
"","psychophysics","340","933633","0.0-2.0-0.102","pj7","[""R""]","","","","","","2048","key","m","m","16.6858963414632","740.5","416.5","1","1","1","0","1","false","",""
"","psychophysics","341","934640","0.0-2.0-1.102","pj7","[""R""]","","","","","","null","key","null","null","16.686067796610217","740.5","416.5","1","1","1","0","1","","",""
"","psychophysics","342","935650","0.0-2.0-3.102-0.102","pj7","[""R""]","","","","","","null","key","null","null","16.6856666666669","740.5","416.5","1","1","1","0","1","","",""
"","psychophysics","343","937457","0.0-2.0-0.103","pj7","[""R""]","","","","","","1104","key","m","m","16.68554205607479","740.5","416.5","2","1","1","1","1","true","",""
"","psychophysics","344","938464","0.0-2.0-1.103","pj7","[""R""]","","","","","","null","key","null","null","16.68662711864503","740.5","416.5","2","1","1","1","1","","",""
"","psychophysics","345","939474","0.0-2.0-2.103-0.103","pj7","[""R""]","","","","","","null","key","null","null","16.686650000000373","740.5","416.5","2","1","1","1","1","","",""
"","psychophysics","346","942609","0.0-2.0-0.104","pj7","[""R""]","","","","","","2432","key","m","m","16.68582887700535","740.5","416.5","1","1","1","0","1","false","",""
"","psychophysics","347","943616","0.0-2.0-1.104","pj7","[""R""]","","","","","","null","key","null","null","16.685966101694078","740.5","416.5","1","1","1","0","1","","",""
"","psychophysics","348","944626","0.0-2.0-3.104-0.104","pj7","[""R""]","","","","","","null","key","null","null","16.68739999999913","740.5","416.5","1","1","1","0","1","","",""
"","psychophysics","349","946769","0.0-2.0-0.105","pj7","[""R""]","","","","","","1440","key","z","z","16.686086614172552","740.5","416.5","1","1","1","1","1","true","",""
"","psychophysics","350","947776","0.0-2.0-1.105","pj7","[""R""]","","","","","","null","key","null","null","16.686864406780057","740.5","416.5","1","1","1","1","1","","",""
"","psychophysics","351","948785","0.0-2.0-2.105-0.105","pj7","[""R""]","","","","","","null","key","null","null","16.68683333333271","740.5","416.5","1","1","1","1","1","","",""
"","psychophysics","352","954609","0.0-2.0-0.106","pj7","[""R""]","","","","","","5121","key","z","z","16.68591954022975","740.5","416.5","1","0","1","0","1","true","",""
"","psychophysics","353","955616","0.0-2.0-1.106","pj7","[""R""]","","","","","","null","key","null","null","16.68620338983108","740.5","416.5","1","0","1","0","1","","",""
"","psychophysics","354","956626","0.0-2.0-2.106-0.106","pj7","[""R""]","","","","","","null","key","null","null","16.68743333333405","740.5","416.5","1","0","1","0","1","","",""
"","psychophysics","355","959044","0.0-2.0-0.107","pj7","[""R""]","","","","","","1715","key","z","z","16.685951388888903","740.5","416.5","2","1","0","0","1","false","",""
"","psychophysics","356","960050","0.0-2.0-1.107","pj7","[""R""]","","","","","","null","key","null","null","16.68718644067787","740.5","416.5","2","1","0","0","1","","",""
"","psychophysics","357","961062","0.0-2.0-3.107-0.107","pj7","[""R""]","","","","","","null","key","null","null","16.687150000000837","740.5","416.5","2","1","0","0","1","","",""
"","psychophysics","358","963841","0.0-2.0-0.108","pj7","[""R""]","","","","","","2075","key","m","m","16.68573939393938","740.5","416.5","1","1","1","1","0","false","",""
"","psychophysics","359","964849","0.0-2.0-1.108","pj7","[""R""]","","","","","","null","key","null","null","16.686333333332247","740.5","416.5","1","1","1","1","0","","",""
"","psychophysics","360","965858","0.0-2.0-3.108-0.108","pj7","[""R""]","","","","","","null","key","null","null","16.685525423728752","740.5","416.5","1","1","1","1","0","","",""
"","psychophysics","361","968609","0.0-2.0-0.109","pj7","[""R""]","","","","","","2048","key","m","m","16.686292682926982","740.5","416.5","2","0","0","1","0","true","",""
"","psychophysics","362","969617","0.0-2.0-1.109","pj7","[""R""]","","","","","","null","key","null","null","16.686338983051936","740.5","416.5","2","0","0","1","0","","",""
"","psychophysics","363","970626","0.0-2.0-2.109-0.109","pj7","[""R""]","","","","","","null","key","null","null","16.686016666668003","740.5","416.5","2","0","0","1","0","","",""
"","psychophysics","364","974417","0.0-2.0-0.110","pj7","[""R""]","","","","","","3087","key","m","m","16.686004424778297","740.5","416.5","1","0","1","1","0","false","",""
"","psychophysics","365","975424","0.0-2.0-1.110","pj7","[""R""]","","","","","","null","key","null","null","16.687084745763705","740.5","416.5","1","0","1","1","0","","",""
"","psychophysics","366","976433","0.0-2.0-3.110-0.110","pj7","[""R""]","","","","","","null","key","null","null","16.686083333333954","740.5","416.5","1","0","1","1","0","","",""
"","psychophysics","367","979553","0.0-2.0-0.111","pj7","[""R""]","","","","","","2417","key","z","z","16.685516129031914","740.5","416.5","2","0","1","0","0","false","",""
"","psychophysics","368","980560","0.0-2.0-1.111","pj7","[""R""]","","","","","","null","key","null","null","16.685779661017122","740.5","416.5","2","0","1","0","0","","",""
"","psychophysics","369","981569","0.0-2.0-3.111-0.111","pj7","[""R""]","","","","","","null","key","null","null","16.687200000001273","740.5","416.5","2","0","1","0","0","","",""
"","psychophysics","370","984817","0.0-2.0-0.112","pj7","[""R""]","","","","","","2544","key","m","m","16.685849740932372","740.5","416.5","2","1","1","0","1","true","",""
"","psychophysics","371","985826","0.0-2.0-1.112","pj7","[""R""]","","","","","","null","key","null","null","16.687616666666386","740.5","416.5","2","1","1","0","1","","",""
"","psychophysics","372","986834","0.0-2.0-2.112-0.112","pj7","[""R""]","","","","","","null","key","null","null","16.686305084745243","740.5","416.5","2","1","1","0","1","","",""
"","psychophysics","373","989985","0.0-2.0-0.113","pj7","[""R""]","","","","","","2447","key","m","m","16.686239361702317","740.5","416.5","2","1","1","0","1","true","",""
"","psychophysics","374","990992","0.0-2.0-1.113","pj7","[""R""]","","","","","","null","key","null","null","16.686372881356657","740.5","416.5","2","1","1","0","1","","",""
"","psychophysics","375","992001","0.0-2.0-2.113-0.113","pj7","[""R""]","","","","","","null","key","null","null","16.686800000001675","740.5","416.5","2","1","1","0","1","","",""
"","psychophysics","376","1001905","0.0-2.0-0.114","pj7","[""R""]","","","","","","9200","key","z","z","16.685854729729652","740.5","416.5","2","0","0","1","0","false","",""
"","psychophysics","377","1002912","0.0-2.0-1.114","pj7","[""R""]","","","","","","null","key","null","null","16.68670000000081","740.5","416.5","2","0","0","1","0","","",""
"","psychophysics","378","1003920","0.0-2.0-3.114-0.114","pj7","[""R""]","","","","","","null","key","null","null","16.68588135593326","740.5","416.5","2","0","0","1","0","","",""
"","psychophysics","379","1006353","0.0-2.0-0.115","pj7","[""R""]","","","","","","1729","key","m","m","16.68628965517233","740.5","416.5","2","0","0","1","0","true","",""
"","psychophysics","380","1007359","0.0-2.0-1.115","pj7","[""R""]","","","","","","null","key","null","null","16.686728813559196","740.5","416.5","2","0","0","1","0","","",""
"","psychophysics","381","1008369","0.0-2.0-2.115-0.115","pj7","[""R""]","","","","","","null","key","null","null","16.687083333332946","740.5","416.5","2","0","0","1","0","","",""
"","psychophysics","382","1011955","0.0-2.0-0.116","pj7","[""R""]","","","","","","2883","key","m","m","16.685859813083997","740.5","416.5","1","1","1","1","0","false","",""
"","psychophysics","383","1012962","0.0-2.0-1.116","pj7","[""R""]","","","","","","null","key","null","null","16.686084745763566","740.5","416.5","1","1","1","1","0","","",""
"","psychophysics","384","1013973","0.0-2.0-3.116-0.116","pj7","[""R""]","","","","","","null","key","null","null","16.68611666666693","740.5","416.5","1","1","1","1","0","","",""
"","psychophysics","385","1016128","0.0-2.0-0.117","pj7","[""R""]","","","","","","1452","key","m","m","16.686546875000204","740.5","416.5","2","0","1","1","1","true","",""
"","psychophysics","386","1017136","0.0-2.0-1.117","pj7","[""R""]","","","","","","null","key","null","null","16.686694915252502","740.5","416.5","2","0","1","1","1","","",""
"","psychophysics","387","1018144","0.0-2.0-2.117-0.117","pj7","[""R""]","","","","","","null","key","null","null","16.687116666667862","740.5","416.5","2","0","1","1","1","","",""
"","psychophysics","388","1020000","0.0-2.0-0.118","pj7","[""R""]","","","","","","1151","key","z","z","16.686818181818605","740.5","416.5","1","0","0","1","1","true","",""
"","psychophysics","389","1021008","0.0-2.0-1.118","pj7","[""R""]","","","","","","null","key","null","null","16.68666101694778","740.5","416.5","1","0","0","1","1","","",""
"","psychophysics","390","1022016","0.0-2.0-2.118-0.118","pj7","[""R""]","","","","","","null","key","null","null","16.6869499999991","740.5","416.5","1","0","0","1","1","","",""
"","psychophysics","391","1024145","0.0-2.0-0.119","pj7","[""R""]","","","","","","1425","key","z","z","16.685976190476804","740.5","416.5","2","1","0","0","0","false","",""
"","psychophysics","392","1025152","0.0-2.0-1.119","pj7","[""R""]","","","","","","null","key","null","null","16.687116666665922","740.5","416.5","2","1","0","0","0","","",""
"","psychophysics","393","1026161","0.0-2.0-3.119-0.119","pj7","[""R""]","","","","","","null","key","null","null","16.685864406779913","740.5","416.5","2","1","0","0","0","","",""
"","psychophysics","394","1029107","0.0-2.0-0.120","pj7","[""R""]","","","","","","2242","key","m","m","16.686079545454547","740.5","416.5","2","1","1","1","1","true","",""
"","psychophysics","395","1030114","0.0-2.0-1.120","pj7","[""R""]","","","","","","null","key","null","null","16.68652542372889","740.5","416.5","2","1","1","1","1","","",""
"","psychophysics","396","1031125","0.0-2.0-2.120-0.120","pj7","[""R""]","","","","","","null","key","null","null","16.68713333333338","740.5","416.5","2","1","1","1","1","","",""
"","psychophysics","397","1036369","0.0-2.0-0.121","pj7","[""R""]","","","","","","4539","key","m","m","16.685862619808457","740.5","416.5","1","1","1","0","1","false","",""
"","psychophysics","398","1037375","0.0-2.0-1.121","pj7","[""R""]","","","","","","null","key","null","null","16.686288135591894","740.5","416.5","1","1","1","0","1","","",""
"","psychophysics","399","1038385","0.0-2.0-3.121-0.121","pj7","[""R""]","","","","","","null","key","null","null","16.687216666666792","740.5","416.5","1","1","1","0","1","","",""
"","psychophysics","400","1040656","0.0-2.0-0.122","pj7","[""R""]","","","","","","1569","key","z","z","16.685911111111096","740.5","416.5","2","0","0","0","0","false","",""
"","psychophysics","401","1041663","0.0-2.0-1.122","pj7","[""R""]","","","","","","null","key","null","null","16.687288135592038","740.5","416.5","2","0","0","0","0","","",""
"","psychophysics","402","1042674","0.0-2.0-3.122-0.122","pj7","[""R""]","","","","","","null","key","null","null","16.687066666665487","740.5","416.5","2","0","0","0","0","","",""
"","psychophysics","403","1046244","0.0-2.0-0.123","pj7","[""R""]","","","","","","2867","key","z","z","16.68662910798112","740.5","416.5","2","1","0","0","0","false","",""
"","psychophysics","404","1047250","0.0-2.0-1.123","pj7","[""R""]","","","","","","null","key","null","null","16.687355932203452","740.5","416.5","2","1","0","0","0","","",""
"","psychophysics","405","1048262","0.0-2.0-3.123-0.123","pj7","[""R""]","","","","","","null","key","null","null","16.68686666666763","740.5","416.5","2","1","0","0","0","","",""
"","psychophysics","406","1050608","0.0-2.0-0.124","pj7","[""R""]","","","","","","1642","key","z","z","16.686000000000362","740.5","416.5","2","0","0","0","0","false","",""
"","psychophysics","407","1051616","0.0-2.0-1.124","pj7","[""R""]","","","","","","null","key","null","null","16.68761666667027","740.5","416.5","2","0","0","0","0","","",""
"","psychophysics","408","1052624","0.0-2.0-3.124-0.124","pj7","[""R""]","","","","","","null","key","null","null","16.68615254237301","740.5","416.5","2","0","0","0","0","","",""
"","psychophysics","409","1057728","0.0-2.0-0.125","pj7","[""R""]","","","","","","4401","key","m","m","16.685954098360703","740.5","416.5","1","0","0","1","1","false","",""
"","psychophysics","410","1058735","0.0-2.0-1.125","pj7","[""R""]","","","","","","null","key","null","null","16.686559322033613","740.5","416.5","1","0","0","1","1","","",""
"","psychophysics","411","1059743","0.0-2.0-3.125-0.125","pj7","[""R""]","","","","","","null","key","null","null","16.687150000000837","740.5","416.5","1","0","0","1","1","","",""
"","psychophysics","412","1062241","0.0-2.0-0.126","pj7","[""R""]","","","","","","1794","key","z","z","16.68587837837844","740.5","416.5","2","1","0","0","1","false","",""
"","psychophysics","413","1063248","0.0-2.0-1.126","pj7","[""R""]","","","","","","null","key","null","null","16.687066666665487","740.5","416.5","2","1","0","0","1","","",""
"","psychophysics","414","1064257","0.0-2.0-3.126-0.126","pj7","[""R""]","","","","","","null","key","null","null","16.68584745762854","740.5","416.5","2","1","0","0","1","","",""
"","psychophysics","415","1066160","0.0-2.0-0.127","pj7","[""R""]","","","","","","1201","key","m","m","16.68587610619431","740.5","416.5","2","0","0","1","1","true","",""
"","psychophysics","416","1067168","0.0-2.0-1.127","pj7","[""R""]","","","","","","null","key","null","null","16.68739999999913","740.5","416.5","2","0","0","1","1","","",""
"","psychophysics","417","1068178","0.0-2.0-2.127-0.127","pj7","[""R""]","","","","","","null","key","null","null","16.6859999999988","740.5","416.5","2","0","0","1","1","","",""
"","psychophysics","418","1071056","0.0-2.0-0.128","pj7","[""R""]","","","","","","2175","key","m","m","16.686267441860128","740.5","416.5","2","0","0","1","0","true","",""
"","psychophysics","419","1072064","0.0-2.0-1.128","pj7","[""R""]","","","","","","null","key","null","null","16.686762711861945","740.5","416.5","2","0","0","1","0","","",""
"","psychophysics","420","1073075","0.0-2.0-2.128-0.128","pj7","[""R""]","","","","","","null","key","null","null","16.687283333332743","740.5","416.5","2","0","0","1","0","","",""
"","psychophysics","421","1076212","0.0-2.0-0.129","pj7","[""R""]","","","","","","2434","key","m","m","16.685877005346768","740.5","416.5","1","1","0","1","0","false","",""
"","psychophysics","422","1077219","0.0-2.0-1.129","pj7","[""R""]","","","","","","null","key","null","null","16.6859999999988","740.5","416.5","1","1","0","1","0","","",""
"","psychophysics","423","1078231","0.0-2.0-3.129-0.129","pj7","[""R""]","","","","","","null","key","null","null","16.685966666667568","740.5","416.5","1","1","0","1","0","","",""
"","psychophysics","424","1080369","0.0-2.0-0.130","pj7","[""R""]","","","","","","1434","key","z","z","16.68592913385928","740.5","416.5","1","1","1","1","1","true","",""
"","psychophysics","425","1081376","0.0-2.0-1.130","pj7","[""R""]","","","","","","null","key","null","null","16.68620338982713","740.5","416.5","1","1","1","1","1","","",""
"","psychophysics","426","1082386","0.0-2.0-2.130-0.130","pj7","[""R""]","","","","","","null","key","null","null","16.6869499999991","740.5","416.5","1","1","1","1","1","","",""
"","psychophysics","427","1084913","0.0-2.0-0.131","pj7","[""R""]","","","","","","1824","key","m","m","16.685913333332476","740.5","416.5","2","1","0","1","0","true","",""
"","psychophysics","428","1085923","0.0-2.0-1.131","pj7","[""R""]","","","","","","null","key","null","null","16.687116666665922","740.5","416.5","2","1","0","1","0","","",""
"","psychophysics","429","1086931","0.0-2.0-2.131-0.131","pj7","[""R""]","","","","","","null","key","null","null","16.686084745763566","740.5","416.5","2","1","0","1","0","","",""
"","psychophysics","430","1088994","0.0-2.0-0.132","pj7","[""R""]","","","","","","1360","key","m","m","16.686365853658142","740.5","416.5","2","1","1","1","1","true","",""
"","psychophysics","431","1090001","0.0-2.0-1.132","pj7","[""R""]","","","","","","null","key","null","null","16.685949152540733","740.5","416.5","2","1","1","1","1","","",""
"","psychophysics","432","1091012","0.0-2.0-2.132-0.132","pj7","[""R""]","","","","","","null","key","null","null","16.68683333333271","740.5","416.5","2","1","1","1","1","","",""
"","psychophysics","433","1093521","0.0-2.0-0.133","pj7","[""R""]","","","","","","1806","key","m","m","16.685718120805507","740.5","416.5","1","0","0","1","0","false","",""
"","psychophysics","434","1094529","0.0-2.0-1.133","pj7","[""R""]","","","","","","null","key","null","null","16.687322033900703","740.5","416.5","1","0","0","1","0","","",""
"","psychophysics","435","1095539","0.0-2.0-3.133-0.133","pj7","[""R""]","","","","","","null","key","null","null","16.68620000000034","740.5","416.5","1","0","0","1","0","","",""
"","psychophysics","436","1097793","0.0-2.0-0.134","pj7","[""R""]","","","","","","1551","key","m","m","16.686298507462087","740.5","416.5","1","0","0","0","0","false","",""
"","psychophysics","437","1098800","0.0-2.0-1.134","pj7","[""R""]","","","","","","null","key","null","null","16.68703389830761","740.5","416.5","1","0","0","0","0","","",""
"","psychophysics","438","1099810","0.0-2.0-3.134-0.134","pj7","[""R""]","","","","","","null","key","null","null","16.686999999999536","740.5","416.5","1","0","0","0","0","","",""
"","psychophysics","439","1101908","0.0-2.0-0.135","pj7","[""R""]","","","","","","1395","key","m","m","16.686167999999597","740.5","416.5","2","0","1","1","1","true","",""
"","psychophysics","440","1102915","0.0-2.0-1.135","pj7","[""R""]","","","","","","null","key","null","null","16.685796610166523","740.5","416.5","2","0","1","1","1","","",""
"","psychophysics","441","1103927","0.0-2.0-2.135-0.135","pj7","[""R""]","","","","","","null","key","null","null","16.68703333333057","740.5","416.5","2","0","1","1","1","","",""
"","psychophysics","442","1105953","0.0-2.0-0.136","pj7","[""R""]","","","","","","1322","key","z","z","16.685866666666698","740.5","416.5","1","0","1","1","1","true","",""
"","psychophysics","443","1106963","0.0-2.0-1.136","pj7","[""R""]","","","","","","null","key","null","null","16.687233333336188","740.5","416.5","1","0","1","1","1","","",""
"","psychophysics","444","1107973","0.0-2.0-2.136-0.136","pj7","[""R""]","","","","","","null","key","null","null","16.683644067795978","740.5","416.5","1","0","1","1","1","","",""
"","psychophysics","445","1109809","0.0-2.0-0.137","pj7","[""R""]","","","","","","1133","key","z","z","16.686366972477185","740.5","416.5","2","1","0","0","0","false","",""
"","psychophysics","446","1110818","0.0-2.0-1.137","pj7","[""R""]","","","","","","null","key","null","null","16.687166666666357","740.5","416.5","2","1","0","0","0","","",""
"","psychophysics","447","1111827","0.0-2.0-3.137-0.137","pj7","[""R""]","","","","","","null","key","null","null","16.685983050847426","740.5","416.5","2","1","0","0","0","","",""
"","psychophysics","448","1113572","0.0-2.0-0.138","pj7","[""R""]","","","","","","1042","key","m","m","16.686442307691323","740.5","416.5","2","0","0","0","0","true","",""
"","psychophysics","449","1114579","0.0-2.0-1.138","pj7","[""R""]","","","","","","null","key","null","null","16.686254237289145","740.5","416.5","2","0","0","0","0","","",""
"","psychophysics","450","1115590","0.0-2.0-2.138-0.138","pj7","[""R""]","","","","","","null","key","null","null","16.685950000002048","740.5","416.5","2","0","0","0","0","","",""
"","psychophysics","451","1118497","0.0-2.0-0.139","pj7","[""R""]","","","","","","2203","key","m","m","16.6857225433533","740.5","416.5","2","1","1","1","1","true","",""
"","psychophysics","452","1119504","0.0-2.0-1.139","pj7","[""R""]","","","","","","null","key","null","null","16.68691525423615","740.5","416.5","2","1","1","1","1","","",""
"","psychophysics","453","1120513","0.0-2.0-2.139-0.139","pj7","[""R""]","","","","","","null","key","null","null","16.686566666665023","740.5","416.5","2","1","1","1","1","","",""
"","psychophysics","454","1123537","0.0-2.0-0.140","pj7","[""R""]","","","","","","2319","key","m","m","16.68570555555505","740.5","416.5","2","0","0","1","0","true","",""
"","psychophysics","455","1124544","0.0-2.0-1.140","pj7","[""R""]","","","","","","null","key","null","null","16.68622033898245","740.5","416.5","2","0","0","1","0","","",""
"","psychophysics","456","1125552","0.0-2.0-2.140-0.140","pj7","[""R""]","","","","","","null","key","null","null","16.68693333333358","740.5","416.5","2","0","0","1","0","","",""
"","psychophysics","457","1128225","0.0-2.0-0.141","pj7","[""R""]","","","","","","1968","key","m","m","16.685742138365118","740.5","416.5","2","0","1","1","1","true","",""
"","psychophysics","458","1129231","0.0-2.0-1.141","pj7","[""R""]","","","","","","null","key","null","null","16.685881355931286","740.5","416.5","2","0","1","1","1","","",""
"","psychophysics","459","1130241","0.0-2.0-2.141-0.141","pj7","[""R""]","","","","","","null","key","null","null","16.68621666666586","740.5","416.5","2","0","1","1","1","","",""
"","psychophysics","460","1133729","0.0-2.0-0.142","pj7","[""R""]","","","","","","2783","key","z","z","16.68586538461498","740.5","416.5","1","1","1","0","1","true","",""
"","psychophysics","461","1134735","0.0-2.0-1.142","pj7","[""R""]","","","","","","null","key","null","null","16.685966101692106","740.5","416.5","1","1","1","0","1","","",""
"","psychophysics","462","1135746","0.0-2.0-2.142-0.142","pj7","[""R""]","","","","","","null","key","null","null","16.68731666666378","740.5","416.5","1","1","1","0","1","","",""
"","psychophysics","463","1138209","0.0-2.0-0.143","pj7","[""R""]","","","","","","1757","key","m","m","16.685856164383626","740.5","416.5","1","1","1","0","1","false","",""
"","psychophysics","464","1139216","0.0-2.0-1.143","pj7","[""R""]","","","","","","null","key","null","null","16.684716666664464","740.5","416.5","1","1","1","0","1","","",""
"","psychophysics","465","1140221","0.0-2.0-3.143-0.143","pj7","[""R""]","","","","","","null","key","null","null","16.688813559320298","740.5","416.5","1","1","1","0","1","","",""
"","psychophysics","466","1142561","0.0-2.0-0.144","pj7","[""R""]","","","","","","1636","key","m","m","16.68590647482025","740.5","416.5","2","0","1","1","1","true","",""
"","psychophysics","467","1143568","0.0-2.0-1.144","pj7","[""R""]","","","","","","null","key","null","null","16.687254237287316","740.5","416.5","2","0","1","1","1","","",""
"","psychophysics","468","1144578","0.0-2.0-2.144-0.144","pj7","[""R""]","","","","","","null","key","null","null","16.68628333333569","740.5","416.5","2","0","1","1","1","","",""
"","psychophysics","469","1147616","0.0-2.0-0.145","pj7","[""R""]","","","","","","2332","key","m","m","16.685850828729098","740.5","416.5","2","0","1","1","1","true","",""
"","psychophysics","470","1148623","0.0-2.0-1.145","pj7","[""R""]","","","","","","null","key","null","null","16.687152542371177","740.5","416.5","2","0","1","1","1","","",""
"","psychophysics","471","1149632","0.0-2.0-2.145-0.145","pj7","[""R""]","","","","","","null","key","null","null","16.686800000001675","740.5","416.5","2","0","1","1","1","","",""
"","psychophysics","472","1151456","0.0-2.0-0.146","pj7","[""R""]","","","","","","1120","key","m","m","16.686101851851195","740.5","416.5","1","1","0","0","1","false","",""
"","psychophysics","473","1152466","0.0-2.0-1.146","pj7","[""R""]","","","","","","null","key","null","null","16.687533333334915","740.5","416.5","1","1","0","0","1","","",""
"","psychophysics","474","1153474","0.0-2.0-3.146-0.146","pj7","[""R""]","","","","","","null","key","null","null","16.68610169491494","740.5","416.5","1","1","0","0","1","","",""
"","psychophysics","475","1156388","0.0-2.0-0.147","pj7","[""R""]","","","","","","2210","key","z","z","16.686258620689568","740.5","416.5","2","1","1","0","1","false","",""
"","psychophysics","476","1157395","0.0-2.0-1.147","pj7","[""R""]","","","","","","null","key","null","null","16.686627118647003","740.5","416.5","2","1","1","0","1","","",""
"","psychophysics","477","1158406","0.0-2.0-3.147-0.147","pj7","[""R""]","","","","","","null","key","null","null","16.687116666665922","740.5","416.5","2","1","1","0","1","","",""
"","psychophysics","478","1167250","0.0-2.0-0.148","pj7","[""R""]","","","","","","8141","key","m","m","16.685846880907526","740.5","416.5","2","0","0","1","1","true","",""
"","psychophysics","479","1168257","0.0-2.0-1.148","pj7","[""R""]","","","","","","null","key","null","null","16.684423728814444","740.5","416.5","2","0","0","1","1","","",""
"","psychophysics","480","1169269","0.0-2.0-2.148-0.148","pj7","[""R""]","","","","","","null","key","null","null","16.6869666666685","740.5","416.5","2","0","0","1","1","","",""
"","psychophysics","481","1171617","0.0-2.0-0.149","pj7","[""R""]","","","","","","1645","key","z","z","16.68569064748192","740.5","416.5","1","1","1","1","1","true","",""
"","psychophysics","482","1172624","0.0-2.0-1.149","pj7","[""R""]","","","","","","null","key","null","null","16.68731666666766","740.5","416.5","1","1","1","1","1","","",""
"","psychophysics","483","1173632","0.0-2.0-2.149-0.149","pj7","[""R""]","","","","","","null","key","null","null","16.686186440679702","740.5","416.5","1","1","1","1","1","","",""
"","psychophysics","484","1182305","0.0-2.0-0.150","pj7","[""R""]","","","","","","7968","key","z","z","16.68589980732192","740.5","416.5","1","0","0","1","1","true","",""
"","psychophysics","485","1183312","0.0-2.0-1.150","pj7","[""R""]","","","","","","null","key","null","null","16.686406779659407","740.5","416.5","1","0","0","1","1","","",""
"","psychophysics","486","1184321","0.0-2.0-2.150-0.150","pj7","[""R""]","","","","","","null","key","null","null","16.68713333333532","740.5","416.5","1","0","0","1","1","","",""
"","psychophysics","487","1190752","0.0-2.0-0.151","pj7","[""R""]","","","","","","5728","key","m","m","16.68584635416725","740.5","416.5","2","1","1","1","1","true","",""
"","psychophysics","488","1191761","0.0-2.0-1.151","pj7","[""R""]","","","","","","null","key","null","null","16.686800000001675","740.5","416.5","2","1","1","1","1","","",""
"","psychophysics","489","1192770","0.0-2.0-2.151-0.151","pj7","[""R""]","","","","","","null","key","null","null","16.685423728812612","740.5","416.5","2","1","1","1","1","","",""
"","psychophysics","490","1197072","0.0-2.0-0.152","pj7","[""R""]","","","","","","3600","key","z","z","16.686120622568485","740.5","416.5","1","1","0","1","1","true","",""
"","psychophysics","491","1198079","0.0-2.0-1.152","pj7","[""R""]","","","","","","null","key","null","null","16.68762711864517","740.5","416.5","1","1","0","1","1","","",""
"","psychophysics","492","1199089","0.0-2.0-2.152-0.152","pj7","[""R""]","","","","","","null","key","null","null","16.686549999999503","740.5","416.5","1","1","0","1","1","","",""
"","psychophysics","493","1202048","0.0-2.0-0.153","pj7","[""R""]","","","","","","2255","key","z","z","16.685926136363626","740.5","416.5","1","0","0","1","1","true","",""
"","psychophysics","494","1203056","0.0-2.0-1.153","pj7","[""R""]","","","","","","null","key","null","null","16.686633333334854","740.5","416.5","1","0","0","1","1","","",""
"","psychophysics","495","1204064","0.0-2.0-2.153-0.153","pj7","[""R""]","","","","","","null","key","null","null","16.685983050847426","740.5","416.5","1","0","0","1","1","","",""
"","psychophysics","496","1206211","0.0-2.0-0.154","pj7","[""R""]","","","","","","1443","key","m","m","16.686015625000437","740.5","416.5","2","1","0","1","1","true","",""
"","psychophysics","497","1207218","0.0-2.0-1.154","pj7","[""R""]","","","","","","null","key","null","null","16.685779661019097","740.5","416.5","2","1","0","1","1","","",""
"","psychophysics","498","1208229","0.0-2.0-2.154-0.154","pj7","[""R""]","","","","","","null","key","null","null","16.68564999999944","740.5","416.5","2","1","0","1","1","","",""
"","psychophysics","499","1212144","0.0-2.0-0.155","pj7","[""R""]","","","","","","3212","key","z","z","16.685849785407036","740.5","416.5","1","0","1","0","1","true","",""
"","psychophysics","500","1213151","0.0-2.0-1.155","pj7","[""R""]","","","","","","null","key","null","null","16.687066666665487","740.5","416.5","1","0","1","0","1","","",""
"","psychophysics","501","1214160","0.0-2.0-2.155-0.155","pj7","[""R""]","","","","","","null","key","null","null","16.685644067796265","740.5","416.5","1","0","1","0","1","","",""
"","psychophysics","502","1216176","0.0-2.0-0.156","pj7","[""R""]","","","","","","1312","key","z","z","16.68631666666673","740.5","416.5","1","1","1","1","1","true","",""
"","psychophysics","503","1217183","0.0-2.0-1.156","pj7","[""R""]","","","","","","null","key","null","null","16.686559322033613","740.5","416.5","1","1","1","1","1","","",""
"","psychophysics","504","1218191","0.0-2.0-2.156-0.156","pj7","[""R""]","","","","","","null","key","null","null","16.68638333333268","740.5","416.5","1","1","1","1","1","","",""
"","psychophysics","505","1219984","0.0-2.0-0.157","pj7","[""R""]","","","","","","1089","key","m","m","16.686160377356366","740.5","416.5","1","0","0","0","0","false","",""
"","psychophysics","506","1220994","0.0-2.0-1.157","pj7","[""R""]","","","","","","null","key","null","null","16.68621666666974","740.5","416.5","1","0","0","0","0","","",""
"","psychophysics","507","1222002","0.0-2.0-3.157-0.157","pj7","[""R""]","","","","","","null","key","null","null","16.68613559321769","740.5","416.5","1","0","0","0","0","","",""
"","psychophysics","508","1224149","0.0-2.0-0.158","pj7","[""R""]","","","","","","1443","key","m","m","16.68596875000003","740.5","416.5","2","1","1","1","1","true","",""
"","psychophysics","509","1225156","0.0-2.0-1.158","pj7","[""R""]","","","","","","null","key","null","null","16.68791525423432","740.5","416.5","2","1","1","1","1","","",""
"","psychophysics","510","1226167","0.0-2.0-2.158-0.158","pj7","[""R""]","","","","","","null","key","null","null","16.68713333333532","740.5","416.5","2","1","1","1","1","","",""
"","psychophysics","511","1227760","0.0-2.0-0.159","pj7","[""R""]","","","","","","890","key","z","z","16.68573404255105","740.5","416.5","1","1","1","1","1","true","",""
"","psychophysics","512","1228770","0.0-2.0-1.159","pj7","[""R""]","","","","","","null","key","null","null","16.68621666666586","740.5","416.5","1","1","1","1","1","","",""
"","psychophysics","513","1229778","0.0-2.0-2.159-0.159","pj7","[""R""]","","","","","","null","key","null","null","16.685423728812612","740.5","416.5","1","1","1","1","1","","",""
"","psychophysics","514","1231232","0.0-2.0-0.160","pj7","[""R""]","","","","","","751","key","z","z","16.686430232558767","740.5","416.5","2","0","0","0","0","false","",""
"","psychophysics","515","1232240","0.0-2.0-1.160","pj7","[""R""]","","","","","","null","key","null","null","16.686616666665454","740.5","416.5","2","0","0","0","0","","",""
"","psychophysics","516","1233248","0.0-2.0-3.160-0.160","pj7","[""R""]","","","","","","null","key","null","null","16.685593220338195","740.5","416.5","2","0","0","0","0","","",""
"","psychophysics","517","1235168","0.0-2.0-0.161","pj7","[""R""]","","","","","","1216","key","m","m","16.68641228070115","740.5","416.5","1","1","0","1","0","false","",""
"","psychophysics","518","1236178","0.0-2.0-1.161","pj7","[""R""]","","","","","","null","key","null","null","16.68703333333445","740.5","416.5","1","1","0","1","0","","",""
"","psychophysics","519","1237188","0.0-2.0-3.161-0.161","pj7","[""R""]","","","","","","null","key","null","null","16.685338983051796","740.5","416.5","1","1","0","1","0","","",""
"","psychophysics","520","1239316","0.0-2.0-0.162","pj7","[""R""]","","","","","","1425","key","z","z","16.685842519684687","740.5","416.5","1","1","0","1","0","true","",""
"","psychophysics","521","1240322","0.0-2.0-1.162","pj7","[""R""]","","","","","","null","key","null","null","16.68659322034031","740.5","416.5","1","1","0","1","0","","",""
"","psychophysics","522","1241334","0.0-2.0-2.162-0.162","pj7","[""R""]","","","","","","null","key","null","null","16.687233333336188","740.5","416.5","1","1","0","1","0","","",""
"","psychophysics","523","1244192","0.0-2.0-0.163","pj7","[""R""]","","","","","","2155","key","m","m","16.686141176471104","740.5","416.5","2","1","0","1","0","true","",""
"","psychophysics","524","1245199","0.0-2.0-1.163","pj7","[""R""]","","","","","","null","key","null","null","16.68654237288224","740.5","416.5","2","1","0","1","0","","",""
"","psychophysics","525","1246208","0.0-2.0-2.163-0.163","pj7","[""R""]","","","","","","null","key","null","null","16.686899999998666","740.5","416.5","2","1","0","1","0","","",""
"","psychophysics","526","1248112","0.0-2.0-0.164","pj7","[""R""]","","","","","","1200","key","m","m","16.686079646017717","740.5","416.5","1","1","0","0","1","false","",""
"","psychophysics","527","1249120","0.0-2.0-1.164","pj7","[""R""]","","","","","","null","key","null","null","16.684915254235868","740.5","416.5","1","1","0","0","1","","",""
"","psychophysics","528","1250130","0.0-2.0-3.164-0.164","pj7","[""R""]","","","","","","null","key","null","null","16.686599999999938","740.5","416.5","1","1","0","0","1","","",""
"","psychophysics","529","1251968","0.0-2.0-0.165","pj7","[""R""]","","","","","","1135","key","m","m","16.68595412844117","740.5","416.5","2","1","1","1","1","true","",""
"","psychophysics","530","1252976","0.0-2.0-1.165","pj7","[""R""]","","","","","","null","key","null","null","16.686389830508034","740.5","416.5","2","1","1","1","1","","",""
"","psychophysics","531","1253985","0.0-2.0-2.165-0.165","pj7","[""R""]","","","","","","null","key","null","null","16.68670000000081","740.5","416.5","2","1","1","1","1","","",""
"","psychophysics","532","1257888","0.0-2.0-0.166","pj7","[""R""]","","","","","","3199","key","z","z","16.685866952789826","740.5","416.5","1","1","1","1","0","true","",""
"","psychophysics","533","1258895","0.0-2.0-1.166","pj7","[""R""]","","","","","","null","key","null","null","16.68622033898245","740.5","416.5","1","1","1","1","0","","",""
"","psychophysics","534","1259906","0.0-2.0-2.166-0.166","pj7","[""R""]","","","","","","null","key","null","null","16.686333333332247","740.5","416.5","1","1","1","1","0","","",""
"","psychophysics","535","1261921","0.0-2.0-0.167","pj7","[""R""]","","","","","","1312","key","m","m","16.685915966387135","740.5","416.5","2","1","1","1","1","true","",""
"","psychophysics","536","1262928","0.0-2.0-1.167","pj7","[""R""]","","","","","","null","key","null","null","16.687533333334915","740.5","416.5","2","1","1","1","1","","",""
"","psychophysics","537","1263937","0.0-2.0-2.167-0.167","pj7","[""R""]","","","","","","null","key","null","null","16.68577966101515","740.5","416.5","2","1","1","1","1","","",""
"","psychophysics","538","1266579","0.0-2.0-0.168","pj7","[""R""]","","","","","","1938","key","z","z","16.68609554140093","740.5","416.5","1","0","1","0","1","true","",""
"","psychophysics","539","1267588","0.0-2.0-1.168","pj7","[""R""]","","","","","","null","key","null","null","16.684066666666574","740.5","416.5","1","0","1","0","1","","",""
"","psychophysics","540","1268600","0.0-2.0-2.168-0.168","pj7","[""R""]","","","","","","null","key","null","null","16.686816666667195","740.5","416.5","1","0","1","0","1","","",""
"","psychophysics","541","1271312","0.0-2.0-0.169","pj7","[""R""]","","","","","","2009","key","m","m","16.685795031056987","740.5","416.5","2","0","0","1","1","true","",""
"","psychophysics","542","1272320","0.0-2.0-1.169","pj7","[""R""]","","","","","","null","key","null","null","16.685433333336064","740.5","416.5","2","0","0","1","1","","",""
"","psychophysics","543","1273328","0.0-2.0-2.169-0.169","pj7","[""R""]","","","","","","null","key","null","null","16.685542372880125","740.5","416.5","2","0","0","1","1","","",""
"","psychophysics","544","1275908","0.0-2.0-0.170","pj7","[""R""]","","","","","","1876","key","z","z","16.685759740260234","740.5","416.5","1","0","0","0","0","true","",""
"","psychophysics","545","1276917","0.0-2.0-1.170","pj7","[""R""]","","","","","","null","key","null","null","16.6864406779661","740.5","416.5","1","0","0","0","0","","",""
"","psychophysics","546","1277927","0.0-2.0-2.170-0.170","pj7","[""R""]","","","","","","null","key","null","null","16.687633333335786","740.5","416.5","1","0","0","0","0","","",""
"","psychophysics","547","1282784","0.0-2.0-0.171","pj7","[""R""]","","","","","","4154","key","z","z","16.685762068965666","740.5","416.5","1","1","0","1","1","true","",""
"","psychophysics","548","1283791","0.0-2.0-1.171","pj7","[""R""]","","","","","","null","key","null","null","16.68620338982713","740.5","416.5","1","1","0","1","1","","",""
"","psychophysics","549","1284801","0.0-2.0-2.171-0.171","pj7","[""R""]","","","","","","null","key","null","null","16.68684999999823","740.5","416.5","1","1","0","1","1","","",""
"","psychophysics","550","1289107","0.0-2.0-0.172","pj7","[""R""]","","","","","","3602","key","z","z","16.686891050583498","740.5","416.5","1","1","0","1","0","true","",""
"","psychophysics","551","1290114","0.0-2.0-1.172","pj7","[""R""]","","","","","","null","key","null","null","16.686288135591894","740.5","416.5","1","1","0","1","0","","",""
"","psychophysics","552","1291125","0.0-2.0-2.172-0.172","pj7","[""R""]","","","","","","null","key","null","null","16.686883333333146","740.5","416.5","1","1","0","1","0","","",""
"","psychophysics","553","1292928","0.0-2.0-0.173","pj7","[""R""]","","","","","","1099","key","m","m","16.686037383179364","740.5","416.5","1","0","1","1","0","false","",""
"","psychophysics","554","1293935","0.0-2.0-1.173","pj7","[""R""]","","","","","","null","key","null","null","16.68520338982896","740.5","416.5","1","0","1","1","0","","",""
"","psychophysics","555","1294946","0.0-2.0-3.173-0.173","pj7","[""R""]","","","","","","null","key","null","null","16.686333333336126","740.5","416.5","1","0","1","1","0","","",""
"","psychophysics","556","1296784","0.0-2.0-0.174","pj7","[""R""]","","","","","","1135","key","z","z","16.68618348623848","740.5","416.5","1","1","1","1","1","true","",""
"","psychophysics","557","1297791","0.0-2.0-1.174","pj7","[""R""]","","","","","","null","key","null","null","16.686186440675755","740.5","416.5","1","1","1","1","1","","",""
"","psychophysics","558","1298801","0.0-2.0-2.174-0.174","pj7","[""R""]","","","","","","null","key","null","null","16.686633333334854","740.5","416.5","1","1","1","1","1","","",""
"","psychophysics","559","1301138","0.0-2.0-0.175","pj7","[""R""]","","","","","","1633","key","z","z","16.685798561151923","740.5","416.5","1","0","1","1","1","true","",""
"","psychophysics","560","1302144","0.0-2.0-1.175","pj7","[""R""]","","","","","","null","key","null","null","16.686033898305496","740.5","416.5","1","0","1","1","1","","",""
"","psychophysics","561","1303156","0.0-2.0-2.175-0.175","pj7","[""R""]","","","","","","null","key","null","null","16.687300000002143","740.5","416.5","1","0","1","1","1","","",""
"","psychophysics","562","1305312","0.0-2.0-0.176","pj7","[""R""]","","","","","","1452","key","z","z","16.685937500000364","740.5","416.5","1","1","1","1","1","true","",""
"","psychophysics","563","1306319","0.0-2.0-1.176","pj7","[""R""]","","","","","","null","key","null","null","16.686661016949753","740.5","416.5","1","1","1","1","1","","",""
"","psychophysics","564","1307328","0.0-2.0-2.176-0.176","pj7","[""R""]","","","","","","null","key","null","null","16.686883333333146","740.5","416.5","1","1","1","1","1","","",""
"","psychophysics","565","1309680","0.0-2.0-0.177","pj7","[""R""]","","","","","","1649","key","m","m","16.68521428571382","740.5","416.5","2","0","1","1","1","true","",""
