subID,trialNum,cntBalance,correct,rt,winner,p1conf,p2conf,p1rslt,p2rslt,
ga4,1,L,true,5020,1,1,1,1,1,
ga4,2,L,true,5205,2,0,1,0,0,
ga4,3,L,true,6559,2,0,1,0,0,
ga4,4,L,true,5173,1,1,0,1,1,
ga4,5,L,true,11099,2,0,1,1,1,
ga4,6,L,true,3141,1,1,0,1,1,
ga4,7,L,true,7442,1,0,1,0,1,
ga4,8,L,true,6502,1,0,0,1,0,
ga4,9,L,true,9374,2,0,1,0,1,
ga4,10,L,true,2123,1,1,0,1,1,
ga4,11,L,false,3423,1,0,1,1,0,
ga4,12,L,true,3855,2,1,0,1,0,
ga4,13,L,true,3561,2,1,0,1,1,
ga4,14,L,true,6972,2,1,0,1,0,
ga4,15,L,true,5759,1,1,0,1,1,
ga4,16,L,false,8046,1,0,0,0,1,
ga4,17,L,false,5438,2,1,0,0,1,
ga4,18,L,true,2950,2,1,1,1,1,
ga4,19,L,true,2487,2,0,0,1,1,
ga4,20,L,true,5303,2,1,1,1,0,
ga4,21,L,true,4735,1,1,1,1,1,
ga4,22,L,true,1637,1,1,0,1,1,
ga4,23,L,false,2859,2,1,0,0,1,
ga4,24,L,false,3607,2,1,1,0,1,
ga4,25,L,true,3232,1,1,1,1,1,
ga4,26,L,false,1790,1,0,1,0,0,
ga4,27,L,true,1548,1,1,1,1,1,
ga4,28,L,true,2428,2,0,1,1,1,
ga4,29,L,false,3766,1,1,0,0,1,
ga4,30,L,true,3174,2,1,0,1,1,
ga4,31,L,true,1937,2,1,1,1,1,
ga4,32,L,true,1419,2,1,1,1,1,
ga4,33,L,true,1943,1,1,1,1,1,
ga4,34,L,true,1954,1,1,0,1,1,
ga4,35,L,true,1910,1,1,0,1,0,
ga4,36,L,true,1719,1,1,0,1,1,
ga4,37,L,false,3301,1,0,1,0,0,
ga4,38,L,true,5829,2,1,0,1,1,
ga4,39,L,true,2361,1,1,0,1,1,
ga4,40,L,true,1336,1,0,1,1,1,
ga4,41,L,true,3519,2,0,0,1,0,
ga4,42,L,true,11371,1,0,1,1,1,
ga4,43,L,false,1275,1,0,0,0,0,
ga4,44,L,true,2275,1,0,1,1,1,
ga4,45,L,true,1118,2,1,1,1,1,
ga4,46,L,true,1079,1,1,1,1,1,
ga4,47,L,true,2007,2,1,0,1,0,
ga4,48,L,true,5249,1,1,1,1,0,
ga4,49,L,true,1863,1,1,0,1,1,
ga4,50,L,true,7213,1,0,0,1,1,
ga4,51,L,true,1375,1,1,1,1,1,
ga4,52,L,true,5604,2,0,0,1,1,
ga4,53,L,true,4238,1,0,0,1,0,
ga4,54,L,false,2936,1,1,1,0,1,
ga4,55,L,true,5143,2,1,0,1,0,
ga4,56,L,true,7102,1,1,0,1,1,
ga4,57,L,true,1667,1,0,1,1,1,
ga4,58,L,true,1140,1,1,0,1,1,
ga4,59,L,true,1193,2,1,0,1,0,
ga4,60,L,true,3220,2,0,1,0,1,
ga4,61,L,false,5088,1,0,0,1,0,
ga4,62,L,true,1887,1,0,0,1,1,
ga4,63,L,true,3560,2,1,1,1,1,
ga4,64,L,true,1722,1,1,1,1,1,
ga4,65,L,true,3098,1,0,0,1,0,
ga4,66,L,true,5036,1,1,1,1,0,
ga4,67,L,true,1741,2,1,1,1,0,
ga4,68,L,true,3937,2,1,1,1,1,
ga4,69,L,true,1134,1,1,1,1,1,
ga4,70,L,true,2375,2,1,0,1,1,
ga4,71,L,false,9996,2,0,1,1,0,
ga4,72,L,true,2784,2,0,1,0,1,
ga4,73,L,true,1428,2,1,1,1,1,
ga4,74,L,true,1476,2,1,0,1,1,
ga4,75,L,false,2125,1,1,0,0,1,
ga4,76,L,true,3799,2,0,1,1,1,
ga4,77,L,true,3332,1,0,0,1,0,
ga4,78,L,false,2091,2,0,1,0,0,
ga4,79,L,true,1883,1,0,1,1,1,
ga4,80,L,false,3822,1,0,1,0,0,
ga4,81,L,true,2981,2,1,1,1,1,
ga4,82,L,true,9447,2,1,1,1,0,
ga4,83,L,true,3422,2,0,0,1,0,
ga4,84,L,true,2133,1,0,1,1,1,
ga4,85,L,true,1150,1,1,1,1,1,
ga4,86,L,true,1790,2,0,1,0,1,
ga4,87,L,true,1342,1,1,0,1,0,
ga4,88,L,false,2383,1,0,0,0,1,
ga4,89,L,true,1669,2,1,0,1,1,
ga4,90,L,true,1457,2,1,0,1,1,
brk,brk,brk,brk,brk,brk,brk,brk,brk,brk,
ga4,91,L,false,6240,2,0,0,0,0,
ga4,92,L,true,2074,2,0,0,1,1,
ga4,93,L,false,4703,1,1,1,1,0,
ga4,94,L,true,2082,1,1,0,1,0,
ga4,95,L,true,1216,2,1,1,1,1,
ga4,96,L,true,1468,2,0,1,1,1,
ga4,97,L,false,1135,1,0,1,0,0,
ga4,98,L,false,2808,1,0,1,1,0,
ga4,99,L,true,4184,1,0,0,1,1,
ga4,100,L,true,1183,1,0,1,1,1,
ga4,101,L,true,3450,1,1,0,1,1,
ga4,102,L,false,7364,2,0,1,1,0,
ga4,103,L,true,4671,1,0,1,0,1,
ga4,104,L,false,2287,2,0,1,0,0,
ga4,105,L,false,4166,2,0,0,0,1,
ga4,106,L,true,1073,1,0,1,1,1,
ga4,107,L,true,6576,1,0,1,0,1,
ga4,108,L,false,2957,2,1,0,0,1,
ga4,109,L,false,4119,1,0,0,0,0,
ga4,110,L,false,2919,2,1,1,1,0,
ga4,111,L,false,5622,1,1,1,0,1,
ga4,112,L,true,4257,2,1,0,1,1,
ga4,113,L,true,1407,1,0,0,1,1,
ga4,114,L,false,2275,2,0,1,0,0,
ga4,115,L,true,2202,2,1,0,1,1,
ga4,116,L,true,1047,2,1,1,1,1,
ga4,117,L,true,1917,1,0,0,1,1,
ga4,118,L,true,1607,2,0,1,1,1,
ga4,119,L,true,1133,1,0,0,1,1,
ga4,120,L,true,1025,2,1,1,1,1,
ga4,121,L,true,4388,2,0,1,0,1,
ga4,122,L,true,1899,1,1,0,1,1,
ga4,123,L,true,1449,1,1,1,1,1,
ga4,124,L,true,1479,1,1,1,1,0,
ga4,125,L,false,4838,1,1,1,0,1,
ga4,126,L,true,2260,1,1,0,1,1,
ga4,127,L,true,2768,1,0,1,0,1,
ga4,128,L,true,1631,1,0,1,1,1,
ga4,129,L,true,3769,1,1,0,1,0,
ga4,130,L,false,2790,1,1,0,0,1,
ga4,131,L,true,5127,2,1,1,1,1,
ga4,132,L,false,8481,1,0,0,0,1,
ga4,133,L,true,2454,1,1,0,1,1,
ga4,134,L,true,1839,1,1,1,1,1,
ga4,135,L,true,902,1,0,0,1,1,
ga4,136,L,false,863,2,0,1,0,0,
ga4,137,L,false,1813,2,1,0,0,1,
ga4,138,L,true,2089,2,1,0,1,0,
ga4,139,L,true,1191,1,1,0,1,1,
ga4,140,L,true,1918,2,1,1,1,1,
ga4,141,L,true,1222,2,1,1,1,1,
ga4,142,L,true,997,1,1,0,1,1,
ga4,143,L,true,1274,2,1,1,1,1,
ga4,144,L,true,775,1,0,0,1,1,
ga4,145,L,true,883,2,1,1,1,1,
ga4,146,L,false,739,2,0,1,0,0,
ga4,147,L,true,1422,2,1,0,1,1,
ga4,148,L,false,4164,2,0,0,0,1,
ga4,149,L,false,2511,1,1,0,0,1,
ga4,150,L,true,1128,1,0,0,1,1,
ga4,151,L,false,3200,1,1,0,0,1,
ga4,152,L,false,3329,2,0,1,1,0,
ga4,153,L,true,3002,2,1,0,1,0,
ga4,154,L,true,3058,2,1,1,1,1,
ga4,155,L,true,2160,1,0,1,0,1,
ga4,156,L,false,2218,2,0,0,0,0,
ga4,157,L,false,7047,2,0,0,0,1,
ga4,158,L,true,2394,2,0,1,1,1,
ga4,159,L,false,3757,2,0,0,0,1,
ga4,160,L,true,5785,1,1,0,1,1,
ga4,161,L,true,5520,1,1,1,1,0,
ga4,162,L,false,12212,2,0,1,1,0,
ga4,163,L,true,6292,2,0,1,0,1,
ga4,164,L,true,1746,1,1,1,0,1,
ga4,165,L,true,2594,2,0,1,1,1,
ga4,166,L,false,4705,1,1,0,0,1,
ga4,167,L,false,3919,2,0,0,0,1,
ga4,168,L,true,3670,2,1,0,1,1,
ga4,169,L,false,12464,1,0,0,1,0,
ga4,170,L,true,2444,1,0,0,1,1,
ga4,171,L,false,2234,2,1,1,0,1,
ga4,172,L,true,2233,1,0,1,0,1,
ga4,173,L,true,1970,2,1,1,1,1,
ga4,174,L,false,2801,2,0,0,0,1,
ga4,175,L,true,4110,1,0,1,0,1,
ga4,176,L,false,7284,2,0,0,0,1,
ga4,177,L,true,7539,1,1,1,1,0,
ga4,178,L,false,1829,1,1,0,0,0,
ga4,179,L,true,1752,1,0,0,1,1,
ga4,180,L,true,1834,1,0,0,1,1,
brk,brk,brk,brk,brk,brk,brk,brk,brk,brk,
ga4,181,L,true,3120,2,0,0,1,1,
ga4,182,L,true,1228,2,0,0,1,1,
ga4,183,L,false,1380,2,0,1,0,0,
ga4,184,L,true,962,1,1,1,1,1,
ga4,185,L,false,1245,2,1,0,0,0,
ga4,186,L,true,1058,2,1,1,1,1,
ga4,187,L,true,1113,2,0,0,1,1,
ga4,188,L,false,3455,2,0,0,0,1,
ga4,189,L,true,1293,2,1,1,1,1,
ga4,190,L,true,3401,1,0,1,0,1,
ga4,191,L,false,2356,1,0,0,0,1,
ga4,192,L,false,8509,1,1,0,0,0,
ga4,193,L,true,1208,2,1,0,1,1,
ga4,194,L,false,1059,1,1,0,1,0,
ga4,195,L,true,2476,2,1,0,1,1,
ga4,196,L,true,2801,1,0,0,1,0,
ga4,197,L,true,1936,1,0,1,1,1,
ga4,198,L,true,9103,1,0,1,0,1,
ga4,199,L,false,5165,2,1,1,0,1,
ga4,200,L,true,3175,1,0,1,0,1,
ga4,201,L,true,2371,1,0,1,1,1,
ga4,202,L,true,2257,2,1,0,1,0,
ga4,203,L,true,2599,2,1,1,1,0,
ga4,204,L,true,1288,1,0,0,1,1,
ga4,205,L,true,2063,1,0,1,1,1,
ga4,206,L,true,1840,2,1,1,1,1,
ga4,207,L,true,3751,2,1,1,1,0,
ga4,208,L,false,1832,2,1,0,0,1,
ga4,209,L,true,2575,1,1,0,1,1,
ga4,210,L,true,1481,1,0,0,1,1,
ga4,211,L,true,1697,2,1,1,1,1,
ga4,212,L,true,3568,2,0,1,1,1,
ga4,213,L,true,7666,1,1,0,1,0,
ga4,214,L,true,1658,2,0,0,1,1,
ga4,215,L,false,1187,2,0,0,0,0,
ga4,216,L,false,1314,1,0,0,0,0,
ga4,217,L,true,1621,2,1,1,1,1,
ga4,218,L,true,3168,1,0,0,1,0,
ga4,219,L,true,2712,2,1,1,1,1,
ga4,220,L,false,7064,2,0,1,0,0,
ga4,221,L,true,3255,1,1,1,1,0,
ga4,222,L,true,1273,1,1,1,1,1,
ga4,223,L,false,1319,2,0,1,0,0,
ga4,224,L,true,1632,2,1,0,1,1,
ga4,225,L,true,3548,2,1,0,1,1,
ga4,226,L,true,1533,1,1,0,1,1,
ga4,227,L,true,2923,2,1,1,1,0,
ga4,228,L,false,3152,1,0,0,0,1,
ga4,229,L,true,2146,1,1,1,1,1,
ga4,230,L,true,2426,1,0,0,1,0,
ga4,231,L,false,2167,1,1,0,0,1,
ga4,232,L,true,8774,2,1,0,1,0,
ga4,233,L,false,6615,1,1,0,0,1,
ga4,234,L,false,2166,1,0,0,0,0,
ga4,235,L,true,2404,1,1,1,1,0,
ga4,236,L,true,4350,1,0,0,1,1,
ga4,237,L,true,3184,1,1,0,1,1,
ga4,238,L,true,1643,1,1,0,1,0,
ga4,239,L,false,1984,2,0,0,0,1,
ga4,240,L,false,1831,2,0,0,0,1,
ga4,241,L,false,1328,2,0,0,1,1,
ga4,242,L,true,1439,1,1,1,1,1,
ga4,243,L,true,2655,1,1,0,1,0,
ga4,244,L,false,5590,1,0,1,1,0,
ga4,245,L,true,1569,1,1,1,1,1,
ga4,246,L,true,891,1,1,1,1,1,
ga4,247,L,true,2355,2,0,0,1,0,
ga4,248,L,true,2671,2,1,1,1,1,
ga4,249,L,true,1198,2,1,0,1,1,
ga4,250,L,true,1016,1,0,1,1,1,
ga4,251,L,true,1976,2,1,0,1,0,
ga4,252,L,true,2716,1,1,1,1,0,
ga4,253,L,true,1428,1,1,0,1,1,
ga4,254,L,false,1432,1,0,0,0,0,
ga4,255,L,true,1509,2,1,0,1,0,
ga4,256,L,false,4478,1,0,0,0,1,
ga4,257,L,true,2719,1,1,0,1,1,
ga4,258,L,false,4960,1,0,0,0,1,
ga4,259,L,true,2908,1,1,0,1,1,
ga4,260,L,true,1413,1,1,0,1,0,
ga4,261,L,false,999,2,1,1,0,0,
ga4,262,L,false,1515,1,0,0,0,0,
ga4,263,L,true,5330,1,0,1,1,1,
ga4,264,L,true,4225,1,1,0,1,1,
ga4,265,L,false,3641,2,1,1,0,1,
ga4,266,L,true,8269,2,0,1,1,1,
ga4,267,L,true,2991,1,0,1,1,1,
ga4,268,L,true,2662,1,1,1,1,0,
ga4,269,L,false,2558,1,0,1,1,0,
ga4,270,L,true,1127,1,0,0,1,1,
brk,brk,brk,brk,brk,brk,brk,brk,brk,brk,
ga4,271,L,true,2548,1,0,0,0,1,
ga4,272,L,false,1870,1,1,0,0,0,
ga4,273,L,true,799,2,1,1,1,1,
ga4,274,L,true,1482,1,0,0,1,0,
ga4,275,L,false,1783,1,0,1,0,0,
ga4,276,L,true,2118,2,1,0,1,1,
ga4,277,L,false,4524,1,0,1,1,0,
ga4,278,L,false,2313,1,1,0,0,1,
ga4,279,L,true,835,1,0,0,1,1,
ga4,280,L,true,2144,2,0,1,1,1,
ga4,281,L,true,1203,1,0,0,1,1,
ga4,282,L,false,2050,2,1,0,0,1,
ga4,283,L,false,3101,1,1,0,0,1,
ga4,284,L,true,1260,2,1,1,1,1,
ga4,285,L,true,5163,2,0,0,1,1,
ga4,286,L,true,742,2,0,0,1,1,
ga4,287,L,false,2800,2,0,1,0,0,
ga4,288,L,true,1299,2,1,1,0,1,
ga4,289,L,false,1324,1,1,1,1,0,
ga4,290,L,true,3256,1,0,1,0,1,
ga4,291,L,true,1580,1,1,1,1,1,
ga4,292,L,true,10463,1,0,0,1,0,
ga4,293,L,true,5665,1,1,1,1,1,
ga4,294,L,true,3516,1,0,1,0,1,
ga4,295,L,true,2521,2,1,0,1,0,
ga4,296,L,true,1535,2,0,0,1,1,
ga4,297,L,true,2644,1,0,1,0,1,
ga4,298,L,false,2509,2,1,0,0,1,
ga4,299,L,true,1590,2,1,1,1,1,
ga4,300,L,false,1200,2,1,1,0,0,
ga4,301,L,false,2335,1,0,0,0,1,
ga4,302,L,true,860,1,1,1,1,1,
ga4,303,L,true,1269,1,1,1,1,1,
ga4,304,L,true,1311,2,0,1,1,1,
ga4,305,L,true,1143,1,1,0,1,1,
ga4,306,L,true,2136,1,0,1,1,1,
ga4,307,L,true,2471,1,1,1,1,1,
ga4,308,L,true,1477,2,1,0,1,1,
ga4,309,L,false,1112,1,1,1,0,0,
ga4,310,L,true,3688,1,1,0,1,1,
ga4,311,L,true,1987,2,1,0,1,1,
ga4,312,L,true,7488,2,1,1,1,0,
ga4,313,L,true,2494,2,1,1,1,0,
ga4,314,L,true,2007,1,1,0,1,1,
ga4,315,L,true,1324,1,1,0,1,1,
ga4,316,L,true,967,1,1,1,1,1,
ga4,317,L,false,1062,1,0,1,1,0,
ga4,318,L,false,5671,1,0,1,1,0,
ga4,319,L,false,1422,1,0,1,0,0,
ga4,320,L,true,2263,2,0,0,1,0,
ga4,321,L,true,950,1,0,0,1,1,
ga4,322,L,false,1910,2,0,0,1,0,
ga4,323,L,true,2469,2,1,0,1,1,
ga4,324,L,true,1127,1,1,1,1,1,
ga4,325,L,true,2540,2,0,1,1,1,
ga4,326,L,true,3143,2,1,1,1,0,
ga4,327,L,false,1647,2,1,0,0,0,
ga4,328,L,true,1793,2,1,0,1,1,
ga4,329,L,false,949,2,1,1,0,0,
ga4,330,L,false,2767,1,1,0,0,0,
ga4,331,L,false,8097,2,0,0,0,1,
ga4,332,L,true,1918,2,0,1,0,1,
ga4,333,L,true,1809,2,1,0,1,1,
ga4,334,L,false,957,1,1,1,1,0,
ga4,335,L,true,1582,1,0,0,1,0,
ga4,336,L,true,910,1,1,0,1,1,
ga4,337,L,true,2006,2,1,0,1,1,
ga4,338,L,true,3997,2,0,1,0,1,
ga4,339,L,true,5738,1,0,1,1,1,
ga4,340,L,true,2062,2,0,1,1,1,
ga4,341,L,false,939,2,0,1,1,0,
ga4,342,L,true,1090,1,0,0,1,1,
ga4,343,L,true,2414,2,0,1,1,1,
ga4,344,L,false,1118,1,1,1,0,0,
ga4,345,L,true,2397,2,0,1,1,1,
ga4,346,L,true,712,1,0,0,1,1,
ga4,347,L,true,653,1,0,0,1,1,
ga4,348,L,true,1053,1,1,0,1,1,
ga4,349,L,true,852,1,0,1,1,1,
ga4,350,L,true,3450,2,1,0,1,1,
ga4,351,L,false,2251,2,0,0,0,1,
ga4,352,L,false,3051,1,1,1,0,1,
ga4,353,L,false,1732,1,0,0,0,1,
ga4,354,L,true,1334,1,1,1,1,1,
ga4,355,L,true,1031,2,1,1,1,1,
ga4,356,L,true,1926,1,1,0,1,0,
ga4,357,L,true,2165,1,0,0,1,0,
ga4,358,L,false,2126,1,0,1,1,0,
ga4,359,L,false,1250,2,0,0,0,1,
ga4,360,L,true,8281,2,1,1,1,0,
brk,brk,brk,brk,brk,brk,brk,brk,brk,brk,
ga4,361,L,false,2624,1,1,0,0,0,
ga4,362,L,false,954,2,0,1,0,0,
ga4,363,L,true,1303,2,1,0,1,1,
ga4,364,L,false,1084,1,1,1,1,0,
ga4,365,L,false,2691,2,1,0,0,1,
ga4,366,L,false,4684,2,0,1,0,0,
ga4,367,L,true,5937,1,0,1,1,1,
ga4,368,L,true,3373,2,1,1,1,0,
ga4,369,L,true,945,1,1,0,1,1,
ga4,370,L,true,1459,2,1,0,1,0,
ga4,371,L,true,1123,2,1,1,1,1,
ga4,372,L,true,1936,2,0,0,1,1,
ga4,373,L,true,6647,1,0,1,1,1,
ga4,374,L,true,660,1,0,0,1,1,
ga4,375,L,true,1648,2,1,1,1,1,
ga4,376,L,true,686,1,0,0,1,1,
ga4,377,L,true,2118,1,0,0,1,0,
ga4,378,L,true,5329,1,0,1,1,1,
ga4,379,L,false,1049,2,1,1,0,0,
ga4,380,L,true,2378,1,0,1,0,1,
ga4,381,L,true,1096,1,1,1,1,1,
ga4,382,L,true,1837,2,1,0,1,0,
ga4,383,L,false,11375,1,1,0,0,0,
ga4,384,L,true,4245,2,1,1,1,0,
ga4,385,L,false,5967,1,1,1,0,1,
ga4,386,L,true,4843,2,1,0,1,0,
ga4,387,L,true,7091,2,1,1,1,1,
ga4,388,L,true,1667,1,1,0,1,1,
ga4,389,L,true,1566,1,1,1,1,0,
ga4,390,L,true,1634,2,0,0,1,1,
ga4,391,L,false,5056,2,0,0,0,1,
ga4,392,L,false,3820,1,0,1,1,0,
ga4,393,L,true,5338,2,1,0,1,1,
ga4,394,L,false,17335,2,0,0,0,1,
ga4,395,L,true,1759,1,0,0,1,1,
ga4,396,L,false,2199,2,0,1,0,0,
ga4,397,L,true,1076,2,1,1,1,1,
ga4,398,L,true,4054,2,1,0,1,0,
ga4,399,L,false,823,2,0,0,0,0,
ga4,400,L,false,2641,1,1,0,0,0,
ga4,401,L,false,916,2,1,0,0,0,
ga4,402,L,false,849,2,0,0,0,0,
ga4,403,L,true,1099,1,1,1,1,1,
ga4,404,L,false,838,2,1,1,0,1,
ga4,405,L,true,1075,2,1,0,1,1,
ga4,406,L,true,1666,2,1,0,1,0,
ga4,407,L,false,4870,1,0,0,0,1,
ga4,408,L,true,2195,1,0,1,1,1,
ga4,409,L,true,836,1,0,0,1,1,
ga4,410,L,true,847,1,1,1,1,1,
ga4,411,L,false,1724,1,0,1,0,0,
ga4,412,L,true,2646,2,1,0,1,1,
ga4,413,L,true,950,2,1,1,1,1,
ga4,414,L,true,719,1,0,0,1,1,
ga4,415,L,true,1544,2,1,0,1,1,
ga4,416,L,true,702,1,1,0,1,1,
ga4,417,L,true,1254,1,1,0,1,1,
ga4,418,L,true,909,2,1,1,1,1,
ga4,419,L,true,1682,1,0,1,0,1,
ga4,420,L,true,1116,2,1,0,1,1,
ga4,421,L,true,989,1,1,0,1,1,
ga4,422,L,false,1359,2,0,1,0,0,
ga4,423,L,true,916,2,0,1,1,1,
ga4,424,L,false,2478,1,0,0,0,1,
ga4,425,L,false,2309,1,0,0,0,0,
ga4,426,L,false,8178,2,0,0,0,1,
ga4,427,L,true,13593,2,0,1,1,0,
ga4,428,L,true,3595,2,1,0,1,1,
ga4,429,L,true,1390,1,0,1,1,1,
ga4,430,L,true,3983,2,0,0,0,1,
ga4,431,L,true,8603,1,0,1,0,1,
ga4,432,L,false,10308,2,0,1,0,0,
ga4,433,L,true,2020,1,0,1,0,1,
ga4,434,L,true,1265,2,1,0,1,1,
ga4,435,L,true,3276,1,0,0,1,0,
ga4,436,L,true,682,1,0,0,1,1,
ga4,437,L,false,800,2,1,1,0,0,
ga4,438,L,false,1852,1,1,0,0,0,
ga4,439,L,true,1403,2,1,0,1,1,
ga4,440,L,true,5392,1,1,0,1,1,
ga4,441,L,true,1899,1,1,1,1,0,
ga4,442,L,false,9527,1,0,1,1,0,
ga4,443,L,true,4519,2,1,0,1,1,
ga4,444,L,true,790,2,1,1,1,1,
ga4,445,L,true,2556,2,1,0,1,0,
ga4,446,L,false,1308,1,1,0,0,1,
ga4,447,L,true,1649,1,0,0,1,1,
ga4,448,L,true,1170,1,1,0,1,1,
ga4,449,L,false,2871,1,0,0,0,1,
ga4,450,L,true,1461,2,1,1,1,1,
