subID,trialNum,cntBalance,correct,rt,winner,p1conf,p2conf,p1rslt,p2rslt,
f88,1,R,true,5364,1,0,1,1,1,
f88,2,R,true,5216,2,1,1,1,1,
f88,3,R,false,11794,1,1,0,1,1,
f88,4,R,true,2171,1,0,1,1,1,
f88,5,R,true,12116,1,0,0,0,1,
f88,6,R,true,1656,1,0,1,1,1,
f88,7,R,true,1536,2,0,1,1,1,
f88,8,R,true,2180,1,0,1,1,1,
f88,9,R,true,7676,2,0,0,0,1,
f88,10,R,true,1549,1,1,1,1,1,
f88,11,R,false,15816,1,0,1,1,0,
f88,12,R,false,5100,1,0,0,1,0,
f88,13,R,true,1621,1,0,1,0,1,
f88,14,R,true,4224,2,0,1,1,1,
f88,15,R,true,1029,1,0,1,0,1,
f88,16,R,false,1398,2,0,0,0,1,
f88,17,R,false,3278,1,1,0,1,1,
f88,18,R,false,2987,2,1,0,1,0,
f88,19,R,true,6288,2,1,0,1,0,
f88,20,R,true,1507,1,1,1,1,1,
f88,21,R,true,4551,1,1,1,0,1,
f88,22,R,false,3399,1,1,0,1,1,
f88,23,R,true,2034,1,0,1,0,1,
f88,24,R,true,1787,2,1,0,1,0,
f88,25,R,false,7670,1,1,1,1,0,
f88,26,R,true,1896,2,0,0,1,1,
f88,27,R,true,3071,1,0,1,1,1,
f88,28,R,false,3802,1,1,1,0,1,
f88,29,R,true,2519,2,0,0,1,1,
f88,30,R,true,1990,2,0,1,1,1,
f88,31,R,true,2951,2,1,0,1,0,
f88,32,R,true,2369,2,0,0,1,1,
f88,33,R,true,8727,2,1,0,1,1,
f88,34,R,true,4149,1,1,1,1,0,
f88,35,R,true,2824,1,1,1,1,1,
f88,36,R,false,8774,1,0,1,1,0,
f88,37,R,true,4502,1,1,1,1,1,
f88,38,R,false,2378,2,0,0,0,1,
f88,39,R,false,5090,2,0,1,0,0,
f88,40,R,false,3287,1,1,1,0,1,
f88,41,R,true,6190,2,0,1,1,1,
f88,42,R,true,1398,1,0,0,1,1,
f88,43,R,true,981,1,0,1,1,1,
f88,44,R,false,2292,1,1,0,0,1,
f88,45,R,false,2166,2,1,1,1,0,
f88,46,R,true,1284,2,1,1,1,1,
f88,47,R,false,1623,2,0,0,0,0,
f88,48,R,true,1984,1,1,1,1,1,
f88,49,R,false,2860,1,1,1,0,1,
f88,50,R,true,2064,2,1,0,1,1,
f88,51,R,true,1246,2,0,1,1,1,
f88,52,R,true,1622,1,0,1,1,1,
f88,53,R,false,1141,2,0,1,0,0,
f88,54,R,false,1269,1,0,0,1,1,
f88,55,R,false,1297,2,0,0,0,0,
f88,56,R,true,1316,1,1,1,1,1,
f88,57,R,true,1486,2,1,0,1,0,
f88,58,R,true,2454,1,1,1,1,1,
f88,59,R,true,1960,2,0,1,1,1,
f88,60,R,true,5300,2,0,1,0,1,
f88,61,R,false,5308,1,0,0,1,0,
f88,62,R,false,1520,2,1,0,0,1,
f88,63,R,true,1319,2,0,0,1,1,
f88,64,R,true,1207,2,1,1,1,1,
f88,65,R,false,3117,2,0,0,0,0,
f88,66,R,true,1812,1,0,1,1,1,
f88,67,R,false,4680,2,0,1,0,0,
f88,68,R,false,1328,1,1,0,1,0,
f88,69,R,false,1235,2,0,0,0,0,
f88,70,R,true,3169,2,1,1,0,1,
f88,71,R,false,2388,2,1,1,0,0,
f88,72,R,true,1897,1,0,0,1,0,
f88,73,R,false,1750,1,0,0,1,1,
f88,74,R,false,2172,2,0,0,0,1,
f88,75,R,true,1783,1,0,0,1,0,
f88,76,R,true,2080,1,1,1,1,1,
f88,77,R,true,8590,1,1,0,1,1,
f88,78,R,false,3502,1,0,0,0,1,
f88,79,R,true,3324,1,1,1,0,1,
f88,80,R,false,1629,2,0,1,0,1,
f88,81,R,true,2112,2,1,0,1,0,
f88,82,R,true,1085,2,1,1,1,1,
f88,83,R,false,1637,1,0,0,1,1,
f88,84,R,false,887,1,0,0,1,1,
f88,85,R,false,1487,2,0,0,0,1,
f88,86,R,true,2057,1,0,1,1,1,
f88,87,R,true,1603,1,1,1,1,1,
f88,88,R,false,2364,1,1,0,0,0,
f88,89,R,true,1780,2,0,1,1,1,
f88,90,R,false,1367,1,1,1,1,0,
f88,91,R,false,4578,2,0,0,1,0,
f88,92,R,false,2811,1,1,1,0,1,
f88,93,R,true,855,1,1,1,0,1,
f88,94,R,true,3038,1,0,0,0,1,
f88,95,R,true,1375,1,1,1,1,1,
f88,96,R,false,1435,1,0,1,1,0,
f88,97,R,true,2000,2,1,0,1,0,
f88,98,R,false,1571,1,1,1,1,0,
f88,99,R,true,5254,2,1,1,0,1,
f88,100,R,true,3187,1,1,0,1,1,
brk,brk,brk,brk,brk,brk,brk,brk,brk,brk,
f88,101,R,true,5191,1,1,0,1,1,
f88,102,R,true,1328,1,1,0,1,0,
f88,103,R,true,1155,1,0,1,0,1,
f88,104,R,true,2117,2,0,0,0,1,
f88,105,R,false,1095,1,0,1,1,0,
f88,106,R,true,2033,2,0,1,1,1,
f88,107,R,false,2089,2,0,0,0,1,
f88,108,R,false,1574,2,1,0,0,1,
f88,109,R,true,3622,1,1,1,1,1,
f88,110,R,true,1736,1,0,1,1,1,
f88,111,R,true,4641,2,0,0,1,1,
f88,112,R,true,1578,1,1,0,1,1,
f88,113,R,true,1505,2,0,0,1,1,
f88,114,R,true,1721,1,1,1,1,1,
f88,115,R,true,1592,2,0,1,1,1,
f88,116,R,true,1869,1,1,1,1,1,
f88,117,R,true,2351,2,0,1,1,1,
f88,118,R,true,3328,2,0,0,1,0,
f88,119,R,false,1674,1,1,0,0,0,
f88,120,R,true,1554,1,1,1,1,1,
f88,121,R,false,2848,2,1,1,0,0,
f88,122,R,true,9158,1,1,0,1,0,
f88,123,R,true,16165,2,1,0,1,0,
f88,124,R,true,1860,1,0,0,1,1,
f88,125,R,true,1817,2,1,0,1,0,
f88,126,R,false,1816,2,1,1,0,0,
f88,127,R,true,3847,2,0,1,0,1,
f88,128,R,true,11164,1,1,0,1,1,
f88,129,R,false,3386,2,0,1,0,0,
f88,130,R,true,3015,1,0,1,0,1,
f88,131,R,true,1401,1,0,0,1,1,
f88,132,R,true,1464,2,1,0,1,1,
f88,133,R,true,7461,2,0,1,0,1,
f88,134,R,false,1929,2,0,1,0,0,
f88,135,R,false,4543,1,0,0,1,0,
f88,136,R,true,1136,1,1,0,0,0,
f88,137,R,true,865,2,0,1,0,1,
f88,138,R,true,705,2,0,1,0,1,
f88,139,R,true,1280,2,1,0,1,0,
f88,140,R,true,1095,1,0,1,0,1,
f88,141,R,false,1224,2,1,1,1,0,
f88,142,R,false,1082,2,0,0,1,1,
f88,143,R,false,2310,1,0,0,0,1,
f88,144,R,true,2439,1,1,0,1,1,
f88,145,R,true,1176,2,0,1,0,1,
f88,146,R,false,5024,2,0,0,0,0,
f88,147,R,true,1313,1,0,1,1,1,
f88,148,R,false,1604,1,0,0,1,0,
f88,149,R,false,1040,1,1,0,0,1,
f88,150,R,true,1264,1,0,0,1,1,
f88,151,R,false,1489,1,0,0,1,1,
f88,152,R,false,1904,1,1,1,1,0,
f88,153,R,false,1664,1,0,0,0,0,
f88,154,R,false,2406,1,0,0,0,1,
f88,155,R,true,968,1,1,1,1,1,
f88,156,R,false,2074,2,1,0,1,1,
f88,157,R,true,943,2,1,0,1,0,
f88,158,R,true,1255,2,0,1,1,1,
f88,159,R,true,2495,2,0,0,1,1,
f88,160,R,true,1060,2,1,0,1,1,
f88,161,R,true,1312,2,0,1,0,1,
f88,162,R,true,2547,2,1,0,1,1,
f88,163,R,true,1166,1,1,1,1,1,
f88,164,R,true,1883,1,1,0,1,0,
f88,165,R,false,2646,1,0,0,0,1,
f88,166,R,false,2291,1,0,0,1,0,
f88,167,R,true,2451,2,1,0,1,1,
f88,168,R,true,6535,1,0,0,1,0,
f88,169,R,true,1109,2,0,1,1,1,
f88,170,R,true,943,1,0,0,1,1,
f88,171,R,true,1758,2,0,1,1,1,
f88,172,R,false,1215,1,1,0,0,0,
f88,173,R,true,979,2,1,1,1,1,
f88,174,R,true,928,1,0,0,1,1,
f88,175,R,true,1806,2,1,0,1,1,
f88,176,R,true,1984,1,1,0,1,0,
f88,177,R,true,1363,2,1,1,1,1,
f88,178,R,false,3501,1,1,1,1,0,
f88,179,R,true,1779,1,0,1,0,1,
f88,180,R,true,988,1,0,1,1,1,
f88,181,R,false,1981,1,0,0,0,1,
f88,182,R,true,1488,2,0,1,1,1,
f88,183,R,true,1425,1,0,1,1,1,
f88,184,R,true,3384,2,0,0,1,1,
f88,185,R,true,3109,2,0,1,1,1,
f88,186,R,true,1800,2,0,0,1,1,
f88,187,R,false,3685,2,1,0,0,0,
f88,188,R,true,1869,2,1,1,0,1,
f88,189,R,true,1250,1,1,1,1,1,
f88,190,R,true,748,2,1,1,1,1,
f88,191,R,true,926,2,1,0,0,0,
f88,192,R,false,1706,2,0,0,1,1,
f88,193,R,true,3752,1,1,0,1,1,
f88,194,R,true,1712,2,0,1,1,1,
f88,195,R,true,8772,1,1,0,1,0,
f88,196,R,true,1044,2,1,0,1,0,
f88,197,R,true,1263,1,1,1,1,1,
f88,198,R,true,1481,2,0,1,1,1,
f88,199,R,true,1270,2,0,0,1,1,
f88,200,R,false,1967,2,0,1,1,0,
brk,brk,brk,brk,brk,brk,brk,brk,brk,brk,
f88,201,R,false,7934,2,1,1,1,0,
f88,202,R,true,2180,2,1,0,1,1,
f88,203,R,true,3168,1,0,0,1,0,
f88,204,R,true,1369,2,1,0,1,0,
f88,205,R,true,1271,1,1,1,1,1,
f88,206,R,true,1630,2,0,1,0,1,
f88,207,R,true,1662,1,1,1,1,1,
f88,208,R,true,4335,1,1,0,1,1,
f88,209,R,true,3940,1,0,0,1,0,
f88,210,R,false,1715,2,1,0,1,1,
f88,211,R,true,3227,2,0,1,0,1,
f88,212,R,true,1977,1,0,0,1,0,
f88,213,R,true,5014,1,1,1,1,0,
f88,214,R,true,1448,1,1,0,1,1,
f88,215,R,true,3797,2,1,1,0,1,
f88,216,R,false,2761,1,1,1,1,0,
f88,217,R,true,1875,2,1,1,1,1,
f88,218,R,true,996,1,1,0,1,1,
f88,219,R,true,2946,2,0,1,1,1,
f88,220,R,false,1239,1,1,0,0,1,
f88,221,R,false,3542,2,1,1,1,0,
f88,222,R,true,1239,2,1,1,1,1,
f88,223,R,false,1864,2,0,0,0,0,
f88,224,R,true,1609,1,1,1,1,1,
f88,225,R,true,1259,2,1,1,1,1,
f88,226,R,false,2815,2,1,0,0,1,
f88,227,R,true,5601,2,0,1,1,1,
f88,228,R,true,2461,1,0,0,1,1,
f88,229,R,true,2664,2,1,1,0,1,
f88,230,R,false,2207,2,0,0,0,1,
f88,231,R,true,3121,1,1,1,1,1,
f88,232,R,true,1812,2,1,0,1,1,
f88,233,R,true,3712,1,0,1,0,1,
f88,234,R,true,4720,1,1,0,1,1,
f88,235,R,true,5540,2,1,1,1,1,
f88,236,R,true,2519,2,0,1,1,1,
f88,237,R,true,1514,1,1,1,1,1,
f88,238,R,true,1523,1,0,0,1,1,
f88,239,R,false,6301,2,1,0,0,1,
f88,240,R,true,1566,1,1,1,1,1,
f88,241,R,true,2400,1,0,0,1,1,
f88,242,R,true,1775,2,1,0,1,1,
f88,243,R,true,1641,2,0,1,1,1,
f88,244,R,true,1475,1,0,1,1,1,
f88,245,R,true,2798,1,1,1,0,1,
f88,246,R,true,1460,1,1,1,1,1,
f88,247,R,true,2713,1,1,0,1,1,
f88,248,R,false,1928,2,0,1,1,1,
f88,249,R,true,1836,2,0,0,0,0,
f88,250,R,false,2430,1,1,1,1,0,
f88,251,R,true,1805,2,1,0,1,1,
f88,252,R,false,5823,1,0,1,0,0,
f88,253,R,true,2894,2,0,0,1,1,
f88,254,R,true,1256,2,0,0,1,1,
f88,255,R,true,7005,1,0,0,1,1,
f88,256,R,true,1752,2,1,0,1,1,
f88,257,R,true,3703,2,0,1,1,1,
f88,258,R,true,2054,2,1,1,1,1,
f88,259,R,true,1021,1,0,0,1,1,
f88,260,R,false,984,1,0,1,1,0,
f88,261,R,true,1901,2,1,1,0,1,
f88,262,R,true,1147,2,1,1,0,1,
f88,263,R,true,1442,1,1,1,1,1,
f88,264,R,true,1378,1,0,0,1,1,
f88,265,R,true,1334,2,0,1,0,1,
f88,266,R,false,10841,2,1,0,0,1,
f88,267,R,true,13368,1,0,0,1,0,
f88,268,R,true,1792,2,1,1,1,1,
f88,269,R,true,1198,1,1,1,1,1,
f88,270,R,true,1075,2,0,1,1,1,
f88,271,R,true,1671,1,1,0,1,0,
f88,272,R,false,1960,1,1,0,0,1,
f88,273,R,true,1690,1,1,1,1,1,
f88,274,R,false,1837,1,1,0,0,0,
f88,275,R,true,2223,1,1,0,1,0,
f88,276,R,true,6229,1,0,1,1,1,
f88,277,R,true,1316,1,1,1,1,1,
f88,278,R,false,5745,1,1,1,0,0,
f88,279,R,true,2733,1,1,1,0,1,
f88,280,R,true,1766,2,0,0,1,1,
f88,281,R,false,3268,1,0,1,0,0,
f88,282,R,true,1813,1,0,1,1,1,
f88,283,R,true,3936,1,0,0,1,1,
f88,284,R,true,1323,1,1,1,1,1,
f88,285,R,true,2248,2,1,0,1,1,
f88,286,R,false,2942,1,1,0,0,1,
f88,287,R,false,1975,1,1,0,0,1,
f88,288,R,true,1219,1,0,1,0,1,
f88,289,R,false,8016,1,0,0,0,1,
f88,290,R,false,1113,2,1,0,0,0,
f88,291,R,true,2329,2,1,0,1,0,
f88,292,R,true,1572,1,1,0,1,0,
f88,293,R,true,1911,1,1,1,1,1,
f88,294,R,true,1861,2,0,0,1,0,
f88,295,R,true,1824,2,1,0,1,0,
f88,296,R,true,1774,2,0,0,1,1,
f88,297,R,false,1685,1,0,0,1,1,
f88,298,R,true,1577,2,1,0,1,1,
f88,299,R,true,3110,1,1,1,1,1,
f88,300,R,true,2409,2,0,1,1,1,
brk,brk,brk,brk,brk,brk,brk,brk,brk,brk,
f88,301,R,true,14715,2,1,1,1,1,
f88,302,R,true,1279,2,0,1,1,1,
f88,303,R,true,1501,2,1,0,1,1,
f88,304,R,true,1608,2,0,0,1,0,
f88,305,R,true,1697,2,1,1,1,1,
f88,306,R,true,2269,2,0,1,1,1,
f88,307,R,true,5372,1,0,1,0,1,
f88,308,R,true,1310,2,0,0,1,1,
f88,309,R,false,1272,1,0,1,1,0,
f88,310,R,true,4614,2,0,0,1,1,
f88,311,R,true,1314,2,1,1,1,1,
f88,312,R,true,1450,2,1,1,1,1,
f88,313,R,true,1933,2,0,0,1,0,
f88,314,R,false,2393,2,1,1,1,0,
f88,315,R,false,1300,1,0,1,1,0,
f88,316,R,true,1503,2,0,1,1,1,
f88,317,R,false,2289,2,0,0,0,0,
f88,318,R,true,1088,2,1,0,0,1,
f88,319,R,true,1616,2,0,0,1,1,
f88,320,R,true,1534,1,0,1,1,1,
f88,321,R,true,933,2,0,1,0,1,
f88,322,R,true,2904,1,1,0,1,0,
f88,323,R,true,1642,1,1,1,1,1,
f88,324,R,true,1192,1,0,1,1,1,
f88,325,R,true,3476,1,0,1,1,1,
f88,326,R,true,1276,2,1,1,1,1,
f88,327,R,true,2510,2,1,0,1,0,
f88,328,R,true,1535,2,0,0,1,1,
f88,329,R,true,2473,1,0,0,1,1,
f88,330,R,true,2805,2,0,0,1,1,
f88,331,R,true,1296,2,0,1,1,1,
f88,332,R,false,2684,1,0,0,0,1,
f88,333,R,false,1025,1,1,1,0,0,
f88,334,R,true,3762,2,0,1,1,1,
f88,335,R,false,4740,2,0,0,1,0,
f88,336,R,true,901,2,0,0,1,0,
f88,337,R,true,1926,1,1,1,0,1,
f88,338,R,true,4813,1,1,1,0,1,
f88,339,R,true,1766,2,1,1,1,1,
f88,340,R,false,2804,2,0,0,0,1,
f88,341,R,false,5307,1,1,0,0,1,
f88,342,R,true,1239,1,0,1,1,1,
f88,343,R,true,3253,1,1,0,1,1,
f88,344,R,false,3630,2,1,0,0,1,
f88,345,R,false,2517,2,0,0,0,1,
f88,346,R,false,2935,2,1,1,1,0,
f88,347,R,true,1384,1,1,1,1,1,
f88,348,R,true,6095,2,1,0,1,1,
f88,349,R,false,992,1,0,1,1,0,
f88,350,R,true,1833,1,0,1,0,1,
f88,351,R,false,1499,1,1,0,0,1,
f88,352,R,false,1093,2,1,0,1,0,
f88,353,R,true,1358,1,1,0,1,0,
f88,354,R,true,2375,2,0,0,1,1,
f88,355,R,false,1919,2,0,0,0,1,
f88,356,R,false,1814,2,1,0,0,0,
f88,357,R,true,1519,1,1,1,1,1,
f88,358,R,true,1245,2,1,1,1,1,
f88,359,R,false,2325,2,1,0,0,1,
f88,360,R,true,2093,2,0,1,1,1,
f88,361,R,true,2271,2,0,0,1,1,
f88,362,R,true,11797,2,1,0,1,0,
f88,363,R,false,1475,1,1,1,0,0,
f88,364,R,false,2587,1,0,0,1,0,
f88,365,R,true,8094,2,0,0,1,0,
f88,366,R,true,2990,1,0,1,0,1,
f88,367,R,true,1711,1,1,0,1,0,
f88,368,R,true,1174,1,0,1,0,1,
f88,369,R,true,3718,2,1,0,1,1,
f88,370,R,true,4199,1,0,0,1,1,
f88,371,R,true,1431,2,1,0,1,0,
f88,372,R,true,2374,2,0,0,1,1,
f88,373,R,true,1351,1,0,1,1,1,
f88,374,R,false,7647,2,1,0,0,1,
f88,375,R,true,5373,1,1,0,1,0,
f88,376,R,true,1736,2,0,1,1,1,
f88,377,R,false,1536,1,1,1,0,1,
f88,378,R,true,1071,2,0,1,1,1,
f88,379,R,false,1845,2,0,0,0,1,
f88,380,R,true,1455,1,1,1,1,1,
f88,381,R,true,2287,1,0,0,0,1,
f88,382,R,true,1056,1,0,0,1,1,
f88,383,R,false,2429,2,0,0,1,0,
f88,384,R,true,892,2,0,1,1,1,
f88,385,R,true,712,1,1,1,1,1,
f88,386,R,true,1782,1,1,1,1,1,
f88,387,R,true,2360,1,1,0,1,1,
f88,388,R,true,3357,1,0,0,1,1,
f88,389,R,false,1650,1,1,0,0,1,
f88,390,R,true,2007,2,1,0,1,1,
f88,391,R,true,1526,1,0,0,1,1,
f88,392,R,true,1479,2,0,0,1,1,
f88,393,R,false,2904,2,0,1,1,0,
f88,394,R,true,1064,2,1,0,1,0,
f88,395,R,false,1709,1,0,0,0,1,
f88,396,R,true,1948,1,0,0,1,1,
f88,397,R,true,3916,1,1,1,0,1,
f88,398,R,false,1775,2,0,0,0,0,
f88,399,R,false,1822,1,1,1,0,0,
f88,400,R,false,4454,1,0,0,0,0,
brk,brk,brk,brk,brk,brk,brk,brk,brk,brk,
f88,401,R,true,2311,2,0,0,1,1,
f88,402,R,true,3719,1,1,0,1,0,
f88,403,R,true,1583,2,0,0,1,1,
f88,404,R,true,1273,1,1,0,1,1,
f88,405,R,false,1379,2,0,1,1,0,
f88,406,R,true,1795,2,1,1,1,1,
f88,407,R,true,1551,2,1,0,1,0,
f88,408,R,false,3508,1,1,0,0,0,
f88,409,R,false,3135,2,0,0,0,1,
f88,410,R,false,2295,1,1,1,1,0,
f88,411,R,true,1708,1,1,0,1,0,
f88,412,R,true,3405,2,1,1,1,1,
f88,413,R,true,5566,2,1,1,1,1,
f88,414,R,true,1669,2,1,0,1,1,
f88,415,R,true,3895,2,0,1,1,1,
f88,416,R,true,1233,1,1,0,1,1,
f88,417,R,true,2517,2,0,1,1,0,
f88,418,R,true,1260,1,0,1,1,1,
f88,419,R,false,1291,1,1,0,0,1,
f88,420,R,true,1893,2,0,1,1,1,
f88,421,R,true,1621,2,0,0,1,1,
f88,422,R,true,4222,2,1,1,1,1,
f88,423,R,true,3213,1,0,1,1,1,
f88,424,R,true,6035,2,1,1,1,1,
f88,425,R,true,4561,2,1,0,1,0,
f88,426,R,false,1258,1,1,1,0,1,
f88,427,R,true,1155,1,1,1,1,0,
f88,428,R,true,1584,1,0,0,1,1,
f88,429,R,true,1823,1,1,0,1,0,
f88,430,R,true,5830,2,1,1,1,1,
f88,431,R,true,3266,1,0,1,1,1,
f88,432,R,false,1681,2,0,1,1,0,
f88,433,R,true,3118,2,0,1,0,1,
f88,434,R,true,4093,1,0,0,1,0,
f88,435,R,true,1240,2,0,1,0,1,
f88,436,R,false,10721,2,0,1,0,0,
f88,437,R,true,60,1,0,1,1,1,
f88,438,R,false,455,2,0,1,1,1,
f88,439,R,true,1532,1,1,0,1,0,
f88,440,R,true,4677,1,1,1,1,1,
f88,441,R,true,6756,2,1,0,1,1,
f88,442,R,true,2666,2,0,1,0,1,
f88,443,R,false,2293,1,1,0,1,0,
f88,444,R,true,356,1,1,1,1,1,
f88,445,R,false,1117,2,1,0,0,0,
f88,446,R,true,4846,2,1,1,1,1,
f88,447,R,true,835,1,1,0,1,1,
f88,448,R,true,2149,1,1,1,1,1,
f88,449,R,true,1454,2,0,0,0,1,
f88,450,R,true,2151,2,0,1,0,1,
f88,451,R,true,999,1,0,1,1,1,
f88,452,R,true,839,1,1,1,0,1,
f88,453,R,false,957,2,0,0,0,0,
f88,454,R,true,2260,1,0,0,1,1,
f88,455,R,false,1044,2,0,1,1,1,
f88,456,R,true,2110,2,0,1,0,1,
f88,457,R,true,1175,1,1,1,1,1,
f88,458,R,true,1452,1,1,0,1,0,
f88,459,R,false,1507,2,1,0,0,1,
f88,460,R,true,1229,2,1,0,1,0,
f88,461,R,true,1192,2,1,0,1,1,
f88,462,R,true,5620,2,0,0,1,1,
f88,463,R,true,197,1,1,0,1,1,
f88,464,R,true,740,1,1,0,0,1,
f88,465,R,true,887,2,0,0,1,1,
f88,466,R,true,401,1,0,0,1,0,
f88,467,R,false,64,2,0,0,1,1,
f88,468,R,true,1269,1,1,1,1,1,
f88,469,R,true,8085,1,0,0,1,0,
f88,470,R,true,6741,2,1,0,1,1,
f88,471,R,true,1165,2,0,1,1,1,
f88,472,R,true,1837,1,0,1,0,1,
f88,473,R,true,2359,2,1,0,1,1,
f88,474,R,true,1388,2,0,1,1,1,
f88,475,R,true,1483,1,1,1,1,1,
f88,476,R,true,1934,2,0,0,1,0,
f88,477,R,true,2046,1,1,1,0,1,
f88,478,R,true,1610,1,1,1,1,1,
f88,479,R,true,2733,2,0,0,1,0,
f88,480,R,true,2748,1,1,1,0,1,
f88,481,R,true,1891,1,0,0,1,0,
f88,482,R,true,8091,2,1,1,0,1,
f88,483,R,true,2097,1,1,1,1,1,
f88,484,R,false,1809,1,0,0,1,0,
f88,485,R,false,1382,1,0,0,0,1,
f88,486,R,true,1166,2,0,1,1,1,
f88,487,R,true,861,1,0,1,1,1,
f88,488,R,true,3300,1,1,0,1,0,
f88,489,R,false,1645,2,1,1,1,0,
f88,490,R,true,1319,2,0,1,1,1,
f88,491,R,false,1256,2,0,1,1,0,
f88,492,R,true,3109,1,1,0,1,1,
f88,493,R,true,2853,2,1,0,1,1,
f88,494,R,true,1578,2,1,1,1,1,
f88,495,R,true,1558,2,1,1,1,1,
f88,496,R,true,2461,2,0,1,1,1,
f88,497,R,false,1188,1,1,0,0,0,
f88,498,R,true,3052,1,1,1,1,1,
f88,499,R,true,2227,2,1,1,1,1,
f88,500,R,true,2381,1,0,0,1,1,
