"success","trial_type","trial_index","time_elapsed","internal_node_id","subject","condition","timeout","failed_images","failed_audio","failed_video","view_history","rt","response_type","key_press","response","avg_frame_time","center_x","center_y","outcome","p1conf","p2conf","p1rslt","p2rslt","correct","stimulus","question_order"
"true","fullscreen","0","2374","0.0-0.0-0.0","kxp","[""l""]","","","","","","","","","","","","","","","","","","","",""
"true","preload","1","2376","0.0-0.0-1.0","kxp","[""l""]","false","[]","[]","[]","","","","","","","","","","","","","","","",""
"","instructions","2","5151","0.0-1.0","kxp","[""l""]","","","","","[{""page_index"":0,""viewing_time"":1140},{""page_index"":1,""viewing_time"":794},{""page_index"":2,""viewing_time"":839}]","2774","","","","","","","","","","","","","",""
"","psychophysics","3","5157","0.0-2.0-0.0","kxp","[""l""]","","","","","","null","key","null","null","6.951000000000022","912","513","2","0","0","0","1","null","",""
"","psychophysics","4","5162","0.0-2.0-1.0","kxp","[""l""]","","","","","","null","key","null","null","NaN","912","513","2","0","0","0","1","","",""
"","psychophysics","5","5189","0.0-2.0-3.0-0.0","kxp","[""l""]","","","","","","null","key","null","null","20.822000000000116","912","513","2","0","0","0","1","","",""
"","psychophysics","6","5194","0.0-2.0-0.1","kxp","[""l""]","","","","","","null","key","null","null","NaN","912","513","1","1","0","1","0","null","",""
"","psychophysics","7","5200","0.0-2.0-1.1","kxp","[""l""]","","","","","","null","key","null","null","NaN","912","513","1","1","0","1","0","","",""
"","psychophysics","8","5208","0.0-2.0-3.1-0.1","kxp","[""l""]","","","","","","null","key","null","null","NaN","912","513","1","1","0","1","0","","",""
"","psychophysics","9","5214","0.0-2.0-0.2","kxp","[""l""]","","","","","","null","key","null","null","NaN","912","513","2","1","1","1","1","null","",""
"","psychophysics","10","5220","0.0-2.0-1.2","kxp","[""l""]","","","","","","null","key","null","null","NaN","912","513","2","1","1","1","1","","",""
"","psychophysics","11","5233","0.0-2.0-3.2-0.2","kxp","[""l""]","","","","","","null","key","null","null","6.943000000000211","912","513","2","1","1","1","1","","",""
"","psychophysics","12","5239","0.0-2.0-0.3","kxp","[""l""]","","","","","","null","key","null","null","NaN","912","513","2","0","0","0","1","null","",""
"","psychophysics","13","5245","0.0-2.0-1.3","kxp","[""l""]","","","","","","null","key","null","null","NaN","912","513","2","0","0","0","1","","",""
"","psychophysics","14","5259","0.0-2.0-3.3-0.3","kxp","[""l""]","","","","","","null","key","null","null","6.931999999999789","912","513","2","0","0","0","1","","",""
"","psychophysics","15","5266","0.0-2.0-0.4","kxp","[""l""]","","","","","","null","key","null","null","NaN","912","513","2","1","0","1","1","null","",""
"","psychophysics","16","5272","0.0-2.0-1.4","kxp","[""l""]","","","","","","null","key","null","null","NaN","912","513","2","1","0","1","1","","",""
"","psychophysics","17","5278","0.0-2.0-3.4-0.4","kxp","[""l""]","","","","","","null","key","null","null","NaN","912","513","2","1","0","1","1","","",""
"","psychophysics","18","5285","0.0-2.0-0.5","kxp","[""l""]","","","","","","null","key","null","null","NaN","912","513","2","0","0","1","1","null","",""
"","psychophysics","19","5291","0.0-2.0-1.5","kxp","[""l""]","","","","","","null","key","null","null","NaN","912","513","2","0","0","1","1","","",""
"","psychophysics","20","5297","0.0-2.0-3.5-0.5","kxp","[""l""]","","","","","","null","key","null","null","NaN","912","513","2","0","0","1","1","","",""
"","psychophysics","21","5303","0.0-2.0-0.6","kxp","[""l""]","","","","","","null","key","null","null","NaN","912","513","1","0","1","1","1","null","",""
"","psychophysics","22","5308","0.0-2.0-1.6","kxp","[""l""]","","","","","","null","key","null","null","NaN","912","513","1","0","1","1","1","","",""
"","psychophysics","23","5322","0.0-2.0-3.6-0.6","kxp","[""l""]","","","","","","null","key","null","null","6.948999999999614","912","513","1","0","1","1","1","","",""
"","psychophysics","24","5329","0.0-2.0-0.7","kxp","[""l""]","","","","","","null","key","null","null","NaN","912","513","2","0","0","0","0","null","",""
"","psychophysics","25","5335","0.0-2.0-1.7","kxp","[""l""]","","","","","","null","key","null","null","NaN","912","513","2","0","0","0","0","","",""
"","psychophysics","26","5342","0.0-2.0-3.7-0.7","kxp","[""l""]","","","","","","null","key","null","null","NaN","912","513","2","0","0","0","0","","",""
"","psychophysics","27","5348","0.0-2.0-0.8","kxp","[""l""]","","","","","","null","key","null","null","NaN","912","513","1","0","1","1","1","null","",""
"","psychophysics","28","5355","0.0-2.0-1.8","kxp","[""l""]","","","","","","null","key","null","null","NaN","912","513","1","0","1","1","1","","",""
"","psychophysics","29","5361","0.0-2.0-3.8-0.8","kxp","[""l""]","","","","","","null","key","null","null","NaN","912","513","1","0","1","1","1","","",""
"","psychophysics","30","5367","0.0-2.0-0.9","kxp","[""l""]","","","","","","null","key","null","null","NaN","912","513","2","1","1","0","0","null","",""
"","psychophysics","31","5375","0.0-2.0-1.9","kxp","[""l""]","","","","","","null","key","null","null","NaN","912","513","2","1","1","0","0","","",""
"","psychophysics","32","5381","0.0-2.0-3.9-0.9","kxp","[""l""]","","","","","","null","key","null","null","NaN","912","513","2","1","1","0","0","","",""
"","psychophysics","33","5387","0.0-2.0-0.10","kxp","[""l""]","","","","","","null","key","null","null","NaN","912","513","2","0","0","1","1","null","",""
"","psychophysics","34","5393","0.0-2.0-1.10","kxp","[""l""]","","","","","","null","key","null","null","NaN","912","513","2","0","0","1","1","","",""
"","psychophysics","35","5407","0.0-2.0-3.10-0.10","kxp","[""l""]","","","","","","null","key","null","null","6.925000000000182","912","513","2","0","0","1","1","","",""
"","psychophysics","36","5413","0.0-2.0-0.11","kxp","[""l""]","","","","","","null","key","null","null","NaN","912","513","1","1","0","1","1","null","",""
"","psychophysics","37","5419","0.0-2.0-1.11","kxp","[""l""]","","","","","","null","key","null","null","NaN","912","513","1","1","0","1","1","","",""
"","psychophysics","38","5426","0.0-2.0-3.11-0.11","kxp","[""l""]","","","","","","null","key","null","null","NaN","912","513","1","1","0","1","1","","",""
"","psychophysics","39","5431","0.0-2.0-0.12","kxp","[""l""]","","","","","","null","key","null","null","NaN","912","513","2","1","1","1","1","null","",""
"","psychophysics","40","5445","0.0-2.0-1.12","kxp","[""l""]","","","","","","null","key","null","null","6.9780000000000655","912","513","2","1","1","1","1","","",""
"","psychophysics","41","5452","0.0-2.0-3.12-0.12","kxp","[""l""]","","","","","","null","key","null","null","NaN","912","513","2","1","1","1","1","","",""
"","psychophysics","42","5461","0.0-2.0-0.13","kxp","[""l""]","","","","","","null","key","null","null","NaN","912","513","1","1","1","0","1","null","",""
"","psychophysics","43","5468","0.0-2.0-1.13","kxp","[""l""]","","","","","","null","key","null","null","NaN","912","513","1","1","1","0","1","","",""
"","psychophysics","44","5474","0.0-2.0-3.13-0.13","kxp","[""l""]","","","","","","null","key","null","null","NaN","912","513","1","1","1","0","1","","",""
"","psychophysics","45","5480","0.0-2.0-0.14","kxp","[""l""]","","","","","","null","key","null","null","NaN","912","513","1","0","0","0","1","null","",""
"","psychophysics","46","5494","0.0-2.0-1.14","kxp","[""l""]","","","","","","null","key","null","null","6.9340000000001965","912","513","1","0","0","0","1","","",""
"","psychophysics","47","5501","0.0-2.0-3.14-0.14","kxp","[""l""]","","","","","","null","key","null","null","NaN","912","513","1","0","0","0","1","","",""
"","psychophysics","48","5507","0.0-2.0-0.15","kxp","[""l""]","","","","","","null","key","null","null","NaN","912","513","2","0","1","0","0","null","",""
"","psychophysics","49","5513","0.0-2.0-1.15","kxp","[""l""]","","","","","","null","key","null","null","NaN","912","513","2","0","1","0","0","","",""
"","psychophysics","50","5520","0.0-2.0-3.15-0.15","kxp","[""l""]","","","","","","null","key","null","null","NaN","912","513","2","0","1","0","0","","",""
"","psychophysics","51","5527","0.0-2.0-0.16","kxp","[""l""]","","","","","","null","key","null","null","NaN","912","513","2","1","0","1","0","null","",""
"","psychophysics","52","5533","0.0-2.0-1.16","kxp","[""l""]","","","","","","null","key","null","null","NaN","912","513","2","1","0","1","0","","",""
"","psychophysics","53","5539","0.0-2.0-3.16-0.16","kxp","[""l""]","","","","","","null","key","null","null","NaN","912","513","2","1","0","1","0","","",""
"","psychophysics","54","5546","0.0-2.0-0.17","kxp","[""l""]","","","","","","null","key","null","null","NaN","912","513","2","0","1","0","1","null","",""
"","psychophysics","55","5559","0.0-2.0-1.17","kxp","[""l""]","","","","","","null","key","null","null","NaN","912","513","2","0","1","0","1","","",""
"","psychophysics","56","5565","0.0-2.0-3.17-0.17","kxp","[""l""]","","","","","","null","key","null","null","NaN","912","513","2","0","1","0","1","","",""
"","psychophysics","57","5572","0.0-2.0-0.18","kxp","[""l""]","","","","","","null","key","null","null","NaN","912","513","1","0","1","1","1","null","",""
"","psychophysics","58","5577","0.0-2.0-1.18","kxp","[""l""]","","","","","","null","key","null","null","NaN","912","513","1","0","1","1","1","","",""
"","psychophysics","59","5584","0.0-2.0-3.18-0.18","kxp","[""l""]","","","","","","null","key","null","null","NaN","912","513","1","0","1","1","1","","",""
"","psychophysics","60","5590","0.0-2.0-0.19","kxp","[""l""]","","","","","","null","key","null","null","NaN","912","513","1","0","1","1","0","null","",""
"","psychophysics","61","5596","0.0-2.0-1.19","kxp","[""l""]","","","","","","null","key","null","null","NaN","912","513","1","0","1","1","0","","",""
"","psychophysics","62","5603","0.0-2.0-3.19-0.19","kxp","[""l""]","","","","","","null","key","null","null","NaN","912","513","1","0","1","1","0","","",""
"","psychophysics","63","5609","0.0-2.0-0.20","kxp","[""l""]","","","","","","null","key","null","null","NaN","912","513","2","1","0","1","1","null","",""
"","psychophysics","64","5621","0.0-2.0-1.20","kxp","[""l""]","","","","","","null","key","null","null","NaN","912","513","2","1","0","1","1","","",""
"","psychophysics","65","5628","0.0-2.0-3.20-0.20","kxp","[""l""]","","","","","","null","key","null","null","NaN","912","513","2","1","0","1","1","","",""
"","psychophysics","66","5635","0.0-2.0-0.21","kxp","[""l""]","","","","","","null","key","null","null","NaN","912","513","2","0","1","1","1","null","",""
"","psychophysics","67","5641","0.0-2.0-1.21","kxp","[""l""]","","","","","","null","key","null","null","NaN","912","513","2","0","1","1","1","","",""
"","psychophysics","68","5648","0.0-2.0-3.21-0.21","kxp","[""l""]","","","","","","null","key","null","null","NaN","912","513","2","0","1","1","1","","",""
"","psychophysics","69","5654","0.0-2.0-0.22","kxp","[""l""]","","","","","","null","key","null","null","NaN","912","513","1","0","0","1","1","null","",""
"","psychophysics","70","5660","0.0-2.0-1.22","kxp","[""l""]","","","","","","null","key","null","null","NaN","912","513","1","0","0","1","1","","",""
"","psychophysics","71","5666","0.0-2.0-3.22-0.22","kxp","[""l""]","","","","","","null","key","null","null","NaN","912","513","1","0","0","1","1","","",""
"","psychophysics","72","5672","0.0-2.0-0.23","kxp","[""l""]","","","","","","null","key","null","null","NaN","912","513","1","0","0","0","1","null","",""
"","psychophysics","73","5677","0.0-2.0-1.23","kxp","[""l""]","","","","","","null","key","null","null","NaN","912","513","1","0","0","0","1","","",""
"","psychophysics","74","5691","0.0-2.0-3.23-0.23","kxp","[""l""]","","","","","","null","key","null","null","6.911999999999352","912","513","1","0","0","0","1","","",""
"","psychophysics","75","5696","0.0-2.0-0.24","kxp","[""l""]","","","","","","null","key","null","null","NaN","912","513","1","1","1","1","1","null","",""
"","psychophysics","76","5703","0.0-2.0-1.24","kxp","[""l""]","","","","","","null","key","null","null","NaN","912","513","1","1","1","1","1","","",""
"","psychophysics","77","5708","0.0-2.0-3.24-0.24","kxp","[""l""]","","","","","","null","key","null","null","NaN","912","513","1","1","1","1","1","","",""
"","psychophysics","78","5715","0.0-2.0-0.25","kxp","[""l""]","","","","","","null","key","null","null","NaN","912","513","1","0","0","1","0","null","",""
"","psychophysics","79","5721","0.0-2.0-1.25","kxp","[""l""]","","","","","","null","key","null","null","NaN","912","513","1","0","0","1","0","","",""
"","psychophysics","80","5728","0.0-2.0-3.25-0.25","kxp","[""l""]","","","","","","null","key","null","null","NaN","912","513","1","0","0","1","0","","",""
"","psychophysics","81","5734","0.0-2.0-0.26","kxp","[""l""]","","","","","","null","key","null","null","NaN","912","513","2","1","0","1","1","null","",""
"","psychophysics","82","5742","0.0-2.0-1.26","kxp","[""l""]","","","","","","null","key","null","null","NaN","912","513","2","1","0","1","1","","",""
"","psychophysics","83","5748","0.0-2.0-3.26-0.26","kxp","[""l""]","","","","","","null","key","null","null","NaN","912","513","2","1","0","1","1","","",""
"","psychophysics","84","5755","0.0-2.0-0.27","kxp","[""l""]","","","","","","null","key","null","null","NaN","912","513","2","0","1","1","1","null","",""
"","psychophysics","85","5768","0.0-2.0-1.27","kxp","[""l""]","","","","","","null","key","null","null","6.912999999999556","912","513","2","0","1","1","1","","",""
"","psychophysics","86","5774","0.0-2.0-3.27-0.27","kxp","[""l""]","","","","","","null","key","null","null","NaN","912","513","2","0","1","1","1","","",""
"","psychophysics","87","5780","0.0-2.0-0.28","kxp","[""l""]","","","","","","null","key","null","null","NaN","912","513","1","0","1","0","0","null","",""
"","psychophysics","88","5786","0.0-2.0-1.28","kxp","[""l""]","","","","","","null","key","null","null","NaN","912","513","1","0","1","0","0","","",""
"","psychophysics","89","5792","0.0-2.0-3.28-0.28","kxp","[""l""]","","","","","","null","key","null","null","NaN","912","513","1","0","1","0","0","","",""
"","psychophysics","90","5799","0.0-2.0-0.29","kxp","[""l""]","","","","","","null","key","null","null","NaN","912","513","2","0","1","0","1","null","",""
"","psychophysics","91","5805","0.0-2.0-1.29","kxp","[""l""]","","","","","","null","key","null","null","NaN","912","513","2","0","1","0","1","","",""
"","psychophysics","92","5812","0.0-2.0-3.29-0.29","kxp","[""l""]","","","","","","null","key","null","null","NaN","912","513","2","0","1","0","1","","",""
"","psychophysics","93","5818","0.0-2.0-0.30","kxp","[""l""]","","","","","","null","key","null","null","NaN","912","513","1","1","0","1","1","null","",""
"","psychophysics","94","5823","0.0-2.0-1.30","kxp","[""l""]","","","","","","null","key","null","null","NaN","912","513","1","1","0","1","1","","",""
"","psychophysics","95","5836","0.0-2.0-3.30-0.30","kxp","[""l""]","","","","","","null","key","null","null","6.963999999999942","912","513","1","1","0","1","1","","",""
"","psychophysics","96","5842","0.0-2.0-0.31","kxp","[""l""]","","","","","","null","key","null","null","NaN","912","513","1","0","1","1","1","null","",""
"","psychophysics","97","5848","0.0-2.0-1.31","kxp","[""l""]","","","","","","null","key","null","null","NaN","912","513","1","0","1","1","1","","",""
"","psychophysics","98","5855","0.0-2.0-3.31-0.31","kxp","[""l""]","","","","","","null","key","null","null","NaN","912","513","1","0","1","1","1","","",""
"","psychophysics","99","5861","0.0-2.0-0.32","kxp","[""l""]","","","","","","null","key","null","null","NaN","912","513","1","0","0","1","1","null","",""
"","psychophysics","100","5867","0.0-2.0-1.32","kxp","[""l""]","","","","","","null","key","null","null","NaN","912","513","1","0","0","1","1","","",""
"","psychophysics","101","5874","0.0-2.0-3.32-0.32","kxp","[""l""]","","","","","","null","key","null","null","NaN","912","513","1","0","0","1","1","","",""
"","psychophysics","102","5879","0.0-2.0-0.33","kxp","[""l""]","","","","","","null","key","null","null","NaN","912","513","1","0","1","1","0","null","",""
"","psychophysics","103","5885","0.0-2.0-1.33","kxp","[""l""]","","","","","","null","key","null","null","NaN","912","513","1","0","1","1","0","","",""
"","psychophysics","104","5898","0.0-2.0-3.33-0.33","kxp","[""l""]","","","","","","null","key","null","null","6.983000000000175","912","513","1","0","1","1","0","","",""
"","psychophysics","105","5904","0.0-2.0-0.34","kxp","[""l""]","","","","","","null","key","null","null","NaN","912","513","1","1","0","1","0","null","",""
"","psychophysics","106","5910","0.0-2.0-1.34","kxp","[""l""]","","","","","","null","key","null","null","NaN","912","513","1","1","0","1","0","","",""
"","psychophysics","107","5917","0.0-2.0-3.34-0.34","kxp","[""l""]","","","","","","null","key","null","null","NaN","912","513","1","1","0","1","0","","",""
"","psychophysics","108","5923","0.0-2.0-0.35","kxp","[""l""]","","","","","","null","key","null","null","NaN","912","513","2","1","0","0","1","null","",""
"","psychophysics","109","5929","0.0-2.0-1.35","kxp","[""l""]","","","","","","null","key","null","null","NaN","912","513","2","1","0","0","1","","",""
"","psychophysics","110","5936","0.0-2.0-3.35-0.35","kxp","[""l""]","","","","","","null","key","null","null","NaN","912","513","2","1","0","0","1","","",""
"","psychophysics","111","5945","0.0-2.0-0.36","kxp","[""l""]","","","","","","null","key","null","null","NaN","912","513","2","0","1","1","1","null","",""
"","psychophysics","112","5951","0.0-2.0-1.36","kxp","[""l""]","","","","","","null","key","null","null","NaN","912","513","2","0","1","1","1","","",""
"","psychophysics","113","5957","0.0-2.0-3.36-0.36","kxp","[""l""]","","","","","","null","key","null","null","NaN","912","513","2","0","1","1","1","","",""
"","psychophysics","114","5964","0.0-2.0-0.37","kxp","[""l""]","","","","","","null","key","null","null","NaN","912","513","1","0","0","0","0","null","",""
"","psychophysics","115","5970","0.0-2.0-1.37","kxp","[""l""]","","","","","","null","key","null","null","NaN","912","513","1","0","0","0","0","","",""
"","psychophysics","116","5976","0.0-2.0-3.37-0.37","kxp","[""l""]","","","","","","null","key","null","null","NaN","912","513","1","0","0","0","0","","",""
"","psychophysics","117","5989","0.0-2.0-0.38","kxp","[""l""]","","","","","","null","key","null","null","6.957000000000335","912","513","2","1","0","1","1","null","",""
"","psychophysics","118","5995","0.0-2.0-1.38","kxp","[""l""]","","","","","","null","key","null","null","NaN","912","513","2","1","0","1","1","","",""
"","psychophysics","119","6002","0.0-2.0-3.38-0.38","kxp","[""l""]","","","","","","null","key","null","null","NaN","912","513","2","1","0","1","1","","",""
"","psychophysics","120","6009","0.0-2.0-0.39","kxp","[""l""]","","","","","","null","key","null","null","NaN","912","513","1","0","1","0","1","null","",""
"","psychophysics","121","6015","0.0-2.0-1.39","kxp","[""l""]","","","","","","null","key","null","null","NaN","912","513","1","0","1","0","1","","",""
"","psychophysics","122","6022","0.0-2.0-3.39-0.39","kxp","[""l""]","","","","","","null","key","null","null","NaN","912","513","1","0","1","0","1","","",""
"","psychophysics","123","6028","0.0-2.0-0.40","kxp","[""l""]","","","","","","null","key","null","null","NaN","912","513","1","1","1","1","1","null","",""
"","psychophysics","124","6034","0.0-2.0-1.40","kxp","[""l""]","","","","","","null","key","null","null","NaN","912","513","1","1","1","1","1","","",""
"","psychophysics","125","6041","0.0-2.0-3.40-0.40","kxp","[""l""]","","","","","","null","key","null","null","NaN","912","513","1","1","1","1","1","","",""
"","psychophysics","126","6048","0.0-2.0-0.41","kxp","[""l""]","","","","","","null","key","null","null","NaN","912","513","2","1","0","1","0","null","",""
"","psychophysics","127","6055","0.0-2.0-1.41","kxp","[""l""]","","","","","","null","key","null","null","NaN","912","513","2","1","0","1","0","","",""
"","psychophysics","128","6062","0.0-2.0-3.41-0.41","kxp","[""l""]","","","","","","null","key","null","null","NaN","912","513","2","1","0","1","0","","",""
"","psychophysics","129","6068","0.0-2.0-0.42","kxp","[""l""]","","","","","","null","key","null","null","NaN","912","513","2","1","0","0","1","null","",""
"","psychophysics","130","6073","0.0-2.0-1.42","kxp","[""l""]","","","","","","null","key","null","null","NaN","912","513","2","1","0","0","1","","",""
"","psychophysics","131","6087","0.0-2.0-3.42-0.42","kxp","[""l""]","","","","","","null","key","null","null","6.962000000000444","912","513","2","1","0","0","1","","",""
"","psychophysics","132","6093","0.0-2.0-0.43","kxp","[""l""]","","","","","","null","key","null","null","NaN","912","513","1","1","1","0","1","null","",""
"","psychophysics","133","6099","0.0-2.0-1.43","kxp","[""l""]","","","","","","null","key","null","null","NaN","912","513","1","1","1","0","1","","",""
"","psychophysics","134","6106","0.0-2.0-3.43-0.43","kxp","[""l""]","","","","","","null","key","null","null","NaN","912","513","1","1","1","0","1","","",""
"","psychophysics","135","6113","0.0-2.0-0.44","kxp","[""l""]","","","","","","null","key","null","null","NaN","912","513","1","1","0","0","1","null","",""
"","psychophysics","136","6118","0.0-2.0-1.44","kxp","[""l""]","","","","","","null","key","null","null","NaN","912","513","1","1","0","0","1","","",""
"","psychophysics","137","6124","0.0-2.0-3.44-0.44","kxp","[""l""]","","","","","","null","key","null","null","NaN","912","513","1","1","0","0","1","","",""
"","psychophysics","138","6129","0.0-2.0-0.45","kxp","[""l""]","","","","","","null","key","null","null","NaN","912","513","2","1","0","1","0","null","",""
"","psychophysics","139","6135","0.0-2.0-1.45","kxp","[""l""]","","","","","","null","key","null","null","NaN","912","513","2","1","0","1","0","","",""
"","psychophysics","140","6148","0.0-2.0-3.45-0.45","kxp","[""l""]","","","","","","null","key","null","null","6.979999999999563","912","513","2","1","0","1","0","","",""
"","psychophysics","141","6154","0.0-2.0-0.46","kxp","[""l""]","","","","","","null","key","null","null","NaN","912","513","2","1","0","0","1","null","",""
"","psychophysics","142","6160","0.0-2.0-1.46","kxp","[""l""]","","","","","","null","key","null","null","NaN","912","513","2","1","0","0","1","","",""
"","psychophysics","143","6166","0.0-2.0-3.46-0.46","kxp","[""l""]","","","","","","null","key","null","null","NaN","912","513","2","1","0","0","1","","",""
"","psychophysics","144","6173","0.0-2.0-0.47","kxp","[""l""]","","","","","","null","key","null","null","NaN","912","513","1","1","1","1","1","null","",""
"","psychophysics","145","6179","0.0-2.0-1.47","kxp","[""l""]","","","","","","null","key","null","null","NaN","912","513","1","1","1","1","1","","",""
"","psychophysics","146","6185","0.0-2.0-3.47-0.47","kxp","[""l""]","","","","","","null","key","null","null","NaN","912","513","1","1","1","1","1","","",""
"","psychophysics","147","6192","0.0-2.0-0.48","kxp","[""l""]","","","","","","null","key","null","null","NaN","912","513","2","1","0","1","1","null","",""
"","psychophysics","148","6199","0.0-2.0-1.48","kxp","[""l""]","","","","","","null","key","null","null","NaN","912","513","2","1","0","1","1","","",""
"","psychophysics","149","6206","0.0-2.0-3.48-0.48","kxp","[""l""]","","","","","","null","key","null","null","NaN","912","513","2","1","0","1","1","","",""
"","psychophysics","150","6215","0.0-2.0-0.49","kxp","[""l""]","","","","","","null","key","null","null","NaN","912","513","2","1","1","1","1","null","",""
"","psychophysics","151","6221","0.0-2.0-1.49","kxp","[""l""]","","","","","","null","key","null","null","NaN","912","513","2","1","1","1","1","","",""
"","psychophysics","152","6226","0.0-2.0-3.49-0.49","kxp","[""l""]","","","","","","null","key","null","null","NaN","912","513","2","1","1","1","1","","",""
"","psychophysics","153","6232","0.0-2.0-0.50","kxp","[""l""]","","","","","","null","key","null","null","NaN","912","513","2","0","1","0","1","null","",""
"","psychophysics","154","6245","0.0-2.0-1.50","kxp","[""l""]","","","","","","null","key","null","null","6.956000000000131","912","513","2","0","1","0","1","","",""
"","psychophysics","155","6251","0.0-2.0-3.50-0.50","kxp","[""l""]","","","","","","null","key","null","null","NaN","912","513","2","0","1","0","1","","",""
"","psychophysics","156","6257","0.0-2.0-0.51","kxp","[""l""]","","","","","","null","key","null","null","NaN","912","513","1","0","0","1","0","null","",""
"","psychophysics","157","6264","0.0-2.0-1.51","kxp","[""l""]","","","","","","null","key","null","null","NaN","912","513","1","0","0","1","0","","",""
"","psychophysics","158","6270","0.0-2.0-3.51-0.51","kxp","[""l""]","","","","","","null","key","null","null","NaN","912","513","1","0","0","1","0","","",""
"","psychophysics","159","6277","0.0-2.0-0.52","kxp","[""l""]","","","","","","null","key","null","null","NaN","912","513","2","0","0","1","0","null","",""
"","psychophysics","160","6283","0.0-2.0-1.52","kxp","[""l""]","","","","","","null","key","null","null","NaN","912","513","2","0","0","1","0","","",""
"","psychophysics","161","6290","0.0-2.0-3.52-0.52","kxp","[""l""]","","","","","","null","key","null","null","NaN","912","513","2","0","0","1","0","","",""
"","psychophysics","162","6296","0.0-2.0-0.53","kxp","[""l""]","","","","","","null","key","null","null","NaN","912","513","2","1","1","1","1","null","",""
"","psychophysics","163","6309","0.0-2.0-1.53","kxp","[""l""]","","","","","","null","key","null","null","NaN","912","513","2","1","1","1","1","","",""
"","psychophysics","164","6315","0.0-2.0-3.53-0.53","kxp","[""l""]","","","","","","null","key","null","null","NaN","912","513","2","1","1","1","1","","",""
"","psychophysics","165","6322","0.0-2.0-0.54","kxp","[""l""]","","","","","","null","key","null","null","NaN","912","513","2","0","1","0","1","null","",""
"","psychophysics","166","6328","0.0-2.0-1.54","kxp","[""l""]","","","","","","null","key","null","null","NaN","912","513","2","0","1","0","1","","",""
"","psychophysics","167","6334","0.0-2.0-3.54-0.54","kxp","[""l""]","","","","","","null","key","null","null","NaN","912","513","2","0","1","0","1","","",""
"","psychophysics","168","6341","0.0-2.0-0.55","kxp","[""l""]","","","","","","null","key","null","null","NaN","912","513","2","0","1","1","1","null","",""
"","psychophysics","169","6347","0.0-2.0-1.55","kxp","[""l""]","","","","","","null","key","null","null","NaN","912","513","2","0","1","1","1","","",""
"","psychophysics","170","6354","0.0-2.0-3.55-0.55","kxp","[""l""]","","","","","","null","key","null","null","NaN","912","513","2","0","1","1","1","","",""
"","psychophysics","171","6360","0.0-2.0-0.56","kxp","[""l""]","","","","","","null","key","null","null","NaN","912","513","1","0","1","0","1","null","",""
"","psychophysics","172","6365","0.0-2.0-1.56","kxp","[""l""]","","","","","","null","key","null","null","NaN","912","513","1","0","1","0","1","","",""
"","psychophysics","173","6379","0.0-2.0-3.56-0.56","kxp","[""l""]","","","","","","null","key","null","null","6.975000000000364","912","513","1","0","1","0","1","","",""
"","psychophysics","174","6385","0.0-2.0-0.57","kxp","[""l""]","","","","","","null","key","null","null","NaN","912","513","1","1","1","1","1","null","",""
"","psychophysics","175","6391","0.0-2.0-1.57","kxp","[""l""]","","","","","","null","key","null","null","NaN","912","513","1","1","1","1","1","","",""
"","psychophysics","176","6397","0.0-2.0-3.57-0.57","kxp","[""l""]","","","","","","null","key","null","null","NaN","912","513","1","1","1","1","1","","",""
"","psychophysics","177","6403","0.0-2.0-0.58","kxp","[""l""]","","","","","","null","key","null","null","NaN","912","513","2","0","1","1","1","null","",""
"","psychophysics","178","6409","0.0-2.0-1.58","kxp","[""l""]","","","","","","null","key","null","null","NaN","912","513","2","0","1","1","1","","",""
"","psychophysics","179","6416","0.0-2.0-3.58-0.58","kxp","[""l""]","","","","","","null","key","null","null","NaN","912","513","2","0","1","1","1","","",""
"","psychophysics","180","6422","0.0-2.0-0.59","kxp","[""l""]","","","","","","null","key","null","null","NaN","912","513","1","0","1","1","0","null","",""
"","psychophysics","181","6428","0.0-2.0-1.59","kxp","[""l""]","","","","","","null","key","null","null","NaN","912","513","1","0","1","1","0","","",""
"","psychophysics","182","6441","0.0-2.0-3.59-0.59","kxp","[""l""]","","","","","","null","key","null","null","NaN","912","513","1","0","1","1","0","","",""
"","psychophysics","183","6447","0.0-2.0-0.60","kxp","[""l""]","","","","","","null","key","null","null","NaN","912","513","1","1","1","1","1","null","",""
"","psychophysics","184","6454","0.0-2.0-1.60","kxp","[""l""]","","","","","","null","key","null","null","NaN","912","513","1","1","1","1","1","","",""
"","psychophysics","185","6462","0.0-2.0-3.60-0.60","kxp","[""l""]","","","","","","null","key","null","null","NaN","912","513","1","1","1","1","1","","",""
"","psychophysics","186","6468","0.0-2.0-0.61","kxp","[""l""]","","","","","","null","key","null","null","NaN","912","513","1","0","0","1","0","null","",""
"","psychophysics","187","6474","0.0-2.0-1.61","kxp","[""l""]","","","","","","null","key","null","null","NaN","912","513","1","0","0","1","0","","",""
"","psychophysics","188","6480","0.0-2.0-3.61-0.61","kxp","[""l""]","","","","","","null","key","null","null","NaN","912","513","1","0","0","1","0","","",""
"","psychophysics","189","6487","0.0-2.0-0.62","kxp","[""l""]","","","","","","null","key","null","null","NaN","912","513","2","1","1","1","1","null","",""
"","psychophysics","190","6493","0.0-2.0-1.62","kxp","[""l""]","","","","","","null","key","null","null","NaN","912","513","2","1","1","1","1","","",""
"","psychophysics","191","6500","0.0-2.0-3.62-0.62","kxp","[""l""]","","","","","","null","key","null","null","NaN","912","513","2","1","1","1","1","","",""
"","psychophysics","192","6506","0.0-2.0-0.63","kxp","[""l""]","","","","","","null","key","null","null","NaN","912","513","1","1","0","1","1","null","",""
"","psychophysics","193","6512","0.0-2.0-1.63","kxp","[""l""]","","","","","","null","key","null","null","NaN","912","513","1","1","0","1","1","","",""
"","psychophysics","194","6519","0.0-2.0-3.63-0.63","kxp","[""l""]","","","","","","null","key","null","null","NaN","912","513","1","1","0","1","1","","",""
"","psychophysics","195","6526","0.0-2.0-0.64","kxp","[""l""]","","","","","","null","key","null","null","NaN","912","513","2","1","0","0","1","null","",""
"","psychophysics","196","6533","0.0-2.0-1.64","kxp","[""l""]","","","","","","null","key","null","null","NaN","912","513","2","1","0","0","1","","",""
"","psychophysics","197","6538","0.0-2.0-3.64-0.64","kxp","[""l""]","","","","","","null","key","null","null","NaN","912","513","2","1","0","0","1","","",""
"","psychophysics","198","6544","0.0-2.0-0.65","kxp","[""l""]","","","","","","null","key","null","null","NaN","912","513","1","0","1","1","1","null","",""
"","psychophysics","199","6558","0.0-2.0-1.65","kxp","[""l""]","","","","","","null","key","null","null","6.912999999999556","912","513","1","0","1","1","1","","",""
"","psychophysics","200","6566","0.0-2.0-3.65-0.65","kxp","[""l""]","","","","","","null","key","null","null","NaN","912","513","1","0","1","1","1","","",""
"","psychophysics","201","6572","0.0-2.0-0.66","kxp","[""l""]","","","","","","null","key","null","null","NaN","912","513","1","0","1","0","1","null","",""
"","psychophysics","202","6578","0.0-2.0-1.66","kxp","[""l""]","","","","","","null","key","null","null","NaN","912","513","1","0","1","0","1","","",""
"","psychophysics","203","6584","0.0-2.0-3.66-0.66","kxp","[""l""]","","","","","","null","key","null","null","NaN","912","513","1","0","1","0","1","","",""
"","psychophysics","204","6593","0.0-2.0-0.67","kxp","[""l""]","","","","","","null","key","null","null","NaN","912","513","1","0","0","1","1","null","",""
"","psychophysics","205","6600","0.0-2.0-1.67","kxp","[""l""]","","","","","","null","key","null","null","NaN","912","513","1","0","0","1","1","","",""
"","psychophysics","206","6606","0.0-2.0-3.67-0.67","kxp","[""l""]","","","","","","null","key","null","null","NaN","912","513","1","0","0","1","1","","",""
"","psychophysics","207","6612","0.0-2.0-0.68","kxp","[""l""]","","","","","","null","key","null","null","NaN","912","513","1","0","0","0","1","null","",""
"","psychophysics","208","6618","0.0-2.0-1.68","kxp","[""l""]","","","","","","null","key","null","null","NaN","912","513","1","0","0","0","1","","",""
"","psychophysics","209","6625","0.0-2.0-3.68-0.68","kxp","[""l""]","","","","","","null","key","null","null","NaN","912","513","1","0","0","0","1","","",""
"","psychophysics","210","6630","0.0-2.0-0.69","kxp","[""l""]","","","","","","null","key","null","null","NaN","912","513","1","1","0","1","1","null","",""
"","psychophysics","211","6636","0.0-2.0-1.69","kxp","[""l""]","","","","","","null","key","null","null","NaN","912","513","1","1","0","1","1","","",""
"","psychophysics","212","6650","0.0-2.0-3.69-0.69","kxp","[""l""]","","","","","","null","key","null","null","6.9520000000002256","912","513","1","1","0","1","1","","",""
"","psychophysics","213","6656","0.0-2.0-0.70","kxp","[""l""]","","","","","","null","key","null","null","NaN","912","513","1","0","0","0","0","null","",""
"","psychophysics","214","6663","0.0-2.0-1.70","kxp","[""l""]","","","","","","null","key","null","null","NaN","912","513","1","0","0","0","0","","",""
"","psychophysics","215","6669","0.0-2.0-3.70-0.70","kxp","[""l""]","","","","","","null","key","null","null","NaN","912","513","1","0","0","0","0","","",""
"","psychophysics","216","6675","0.0-2.0-0.71","kxp","[""l""]","","","","","","null","key","null","null","NaN","912","513","1","0","0","1","1","null","",""
"","psychophysics","217","6684","0.0-2.0-1.71","kxp","[""l""]","","","","","","null","key","null","null","NaN","912","513","1","0","0","1","1","","",""
"","psychophysics","218","6689","0.0-2.0-3.71-0.71","kxp","[""l""]","","","","","","null","key","null","null","NaN","912","513","1","0","0","1","1","","",""
"","psychophysics","219","6696","0.0-2.0-0.72","kxp","[""l""]","","","","","","null","key","null","null","NaN","912","513","1","1","1","1","0","null","",""
"","psychophysics","220","6702","0.0-2.0-1.72","kxp","[""l""]","","","","","","null","key","null","null","NaN","912","513","1","1","1","1","0","","",""
"","psychophysics","221","6708","0.0-2.0-3.72-0.72","kxp","[""l""]","","","","","","null","key","null","null","NaN","912","513","1","1","1","1","0","","",""
"","psychophysics","222","6715","0.0-2.0-0.73","kxp","[""l""]","","","","","","null","key","null","null","NaN","912","513","1","0","1","1","1","null","",""
"","psychophysics","223","6720","0.0-2.0-1.73","kxp","[""l""]","","","","","","null","key","null","null","NaN","912","513","1","0","1","1","1","","",""
"","psychophysics","224","6728","0.0-2.0-3.73-0.73","kxp","[""l""]","","","","","","null","key","null","null","NaN","912","513","1","0","1","1","1","","",""
"","psychophysics","225","6735","0.0-2.0-0.74","kxp","[""l""]","","","","","","null","key","null","null","NaN","912","513","2","1","0","1","1","null","",""
"","psychophysics","226","6741","0.0-2.0-1.74","kxp","[""l""]","","","","","","null","key","null","null","NaN","912","513","2","1","0","1","1","","",""
"","psychophysics","227","6749","0.0-2.0-3.74-0.74","kxp","[""l""]","","","","","","null","key","null","null","NaN","912","513","2","1","0","1","1","","",""
"","psychophysics","228","6755","0.0-2.0-0.75","kxp","[""l""]","","","","","","null","key","null","null","NaN","912","513","2","0","1","1","1","null","",""
"","psychophysics","229","6763","0.0-2.0-1.75","kxp","[""l""]","","","","","","null","key","null","null","NaN","912","513","2","0","1","1","1","","",""
"","psychophysics","230","6771","0.0-2.0-3.75-0.75","kxp","[""l""]","","","","","","null","key","null","null","NaN","912","513","2","0","1","1","1","","",""
"","psychophysics","231","6777","0.0-2.0-0.76","kxp","[""l""]","","","","","","null","key","null","null","NaN","912","513","1","0","1","1","1","null","",""
"","psychophysics","232","6783","0.0-2.0-1.76","kxp","[""l""]","","","","","","null","key","null","null","NaN","912","513","1","0","1","1","1","","",""
"","psychophysics","233","6790","0.0-2.0-3.76-0.76","kxp","[""l""]","","","","","","null","key","null","null","NaN","912","513","1","0","1","1","1","","",""
"","psychophysics","234","6796","0.0-2.0-0.77","kxp","[""l""]","","","","","","null","key","null","null","NaN","912","513","2","0","0","0","0","null","",""
"","psychophysics","235","6802","0.0-2.0-1.77","kxp","[""l""]","","","","","","null","key","null","null","NaN","912","513","2","0","0","0","0","","",""
"","psychophysics","236","6815","0.0-2.0-3.77-0.77","kxp","[""l""]","","","","","","null","key","null","null","6.984999999999673","912","513","2","0","0","0","0","","",""
"","psychophysics","237","6821","0.0-2.0-0.78","kxp","[""l""]","","","","","","null","key","null","null","NaN","912","513","2","0","0","0","1","null","",""
"","psychophysics","238","6827","0.0-2.0-1.78","kxp","[""l""]","","","","","","null","key","null","null","NaN","912","513","2","0","0","0","1","","",""
"","psychophysics","239","6833","0.0-2.0-3.78-0.78","kxp","[""l""]","","","","","","null","key","null","null","NaN","912","513","2","0","0","0","1","","",""
"","psychophysics","240","6840","0.0-2.0-0.79","kxp","[""l""]","","","","","","null","key","null","null","NaN","912","513","2","0","1","1","0","null","",""
"","psychophysics","241","6846","0.0-2.0-1.79","kxp","[""l""]","","","","","","null","key","null","null","NaN","912","513","2","0","1","1","0","","",""
"","psychophysics","242","6851","0.0-2.0-3.79-0.79","kxp","[""l""]","","","","","","null","key","null","null","NaN","912","513","2","0","1","1","0","","",""
"","psychophysics","243","6857","0.0-2.0-0.80","kxp","[""l""]","","","","","","null","key","null","null","NaN","912","513","1","0","0","1","1","null","",""
"","psychophysics","244","6864","0.0-2.0-1.80","kxp","[""l""]","","","","","","null","key","null","null","NaN","912","513","1","0","0","1","1","","",""
"","psychophysics","245","6870","0.0-2.0-3.80-0.80","kxp","[""l""]","","","","","","null","key","null","null","NaN","912","513","1","0","0","1","1","","",""
"","psychophysics","246","6877","0.0-2.0-0.81","kxp","[""l""]","","","","","","null","key","null","null","NaN","912","513","2","0","0","1","0","null","",""
"","psychophysics","247","6882","0.0-2.0-1.81","kxp","[""l""]","","","","","","null","key","null","null","NaN","912","513","2","0","0","1","0","","",""
"","psychophysics","248","6888","0.0-2.0-3.81-0.81","kxp","[""l""]","","","","","","null","key","null","null","NaN","912","513","2","0","0","1","0","","",""
"","psychophysics","249","6895","0.0-2.0-0.82","kxp","[""l""]","","","","","","null","key","null","null","NaN","912","513","2","1","1","0","0","null","",""
"","psychophysics","250","6902","0.0-2.0-1.82","kxp","[""l""]","","","","","","null","key","null","null","NaN","912","513","2","1","1","0","0","","",""
"","psychophysics","251","6909","0.0-2.0-3.82-0.82","kxp","[""l""]","","","","","","null","key","null","null","NaN","912","513","2","1","1","0","0","","",""
"","psychophysics","252","6916","0.0-2.0-0.83","kxp","[""l""]","","","","","","null","key","null","null","NaN","912","513","1","0","1","1","1","null","",""
"","psychophysics","253","6921","0.0-2.0-1.83","kxp","[""l""]","","","","","","null","key","null","null","NaN","912","513","1","0","1","1","1","","",""
"","psychophysics","254","6928","0.0-2.0-3.83-0.83","kxp","[""l""]","","","","","","null","key","null","null","NaN","912","513","1","0","1","1","1","","",""
"","psychophysics","255","6935","0.0-2.0-0.84","kxp","[""l""]","","","","","","null","key","null","null","NaN","912","513","1","0","1","1","1","null","",""
"","psychophysics","256","6942","0.0-2.0-1.84","kxp","[""l""]","","","","","","null","key","null","null","NaN","912","513","1","0","1","1","1","","",""
"","psychophysics","257","6948","0.0-2.0-3.84-0.84","kxp","[""l""]","","","","","","null","key","null","null","NaN","912","513","1","0","1","1","1","","",""
"","psychophysics","258","6954","0.0-2.0-0.85","kxp","[""l""]","","","","","","null","key","null","null","NaN","912","513","1","1","0","0","1","null","",""
"","psychophysics","259","6968","0.0-2.0-1.85","kxp","[""l""]","","","","","","null","key","null","null","6.975000000000364","912","513","1","1","0","0","1","","",""
"","psychophysics","260","6975","0.0-2.0-3.85-0.85","kxp","[""l""]","","","","","","null","key","null","null","NaN","912","513","1","1","0","0","1","","",""
"","psychophysics","261","6981","0.0-2.0-0.86","kxp","[""l""]","","","","","","null","key","null","null","NaN","912","513","2","0","1","1","1","null","",""
"","psychophysics","262","6987","0.0-2.0-1.86","kxp","[""l""]","","","","","","null","key","null","null","NaN","912","513","2","0","1","1","1","","",""
"","psychophysics","263","6993","0.0-2.0-3.86-0.86","kxp","[""l""]","","","","","","null","key","null","null","NaN","912","513","2","0","1","1","1","","",""
"","psychophysics","264","6999","0.0-2.0-0.87","kxp","[""l""]","","","","","","null","key","null","null","NaN","912","513","2","0","1","0","1","null","",""
"","psychophysics","265","7006","0.0-2.0-1.87","kxp","[""l""]","","","","","","null","key","null","null","NaN","912","513","2","0","1","0","1","","",""
"","psychophysics","266","7012","0.0-2.0-3.87-0.87","kxp","[""l""]","","","","","","null","key","null","null","NaN","912","513","2","0","1","0","1","","",""
"","psychophysics","267","7019","0.0-2.0-0.88","kxp","[""l""]","","","","","","null","key","null","null","NaN","912","513","2","1","1","1","1","null","",""
"","psychophysics","268","7024","0.0-2.0-1.88","kxp","[""l""]","","","","","","null","key","null","null","NaN","912","513","2","1","1","1","1","","",""
"","psychophysics","269","7032","0.0-2.0-3.88-0.88","kxp","[""l""]","","","","","","null","key","null","null","7.006000000000313","912","513","2","1","1","1","1","","",""
"","psychophysics","270","7038","0.0-2.0-0.89","kxp","[""l""]","","","","","","null","key","null","null","NaN","912","513","2","1","1","0","1","null","",""
"","psychophysics","271","7044","0.0-2.0-1.89","kxp","[""l""]","","","","","","null","key","null","null","NaN","912","513","2","1","1","0","1","","",""
"","psychophysics","272","7051","0.0-2.0-3.89-0.89","kxp","[""l""]","","","","","","null","key","null","null","NaN","912","513","2","1","1","0","1","","",""
"","psychophysics","273","7057","0.0-2.0-0.90","kxp","[""l""]","","","","","","null","key","null","null","NaN","912","513","2","1","1","1","1","null","",""
"","psychophysics","274","7063","0.0-2.0-1.90","kxp","[""l""]","","","","","","null","key","null","null","NaN","912","513","2","1","1","1","1","","",""
"","psychophysics","275","7069","0.0-2.0-3.90-0.90","kxp","[""l""]","","","","","","null","key","null","null","NaN","912","513","2","1","1","1","1","","",""
"","psychophysics","276","7076","0.0-2.0-0.91","kxp","[""l""]","","","","","","null","key","null","null","NaN","912","513","1","1","0","1","1","null","",""
"","psychophysics","277","7082","0.0-2.0-1.91","kxp","[""l""]","","","","","","null","key","null","null","NaN","912","513","1","1","0","1","1","","",""
"","psychophysics","278","7089","0.0-2.0-3.91-0.91","kxp","[""l""]","","","","","","null","key","null","null","NaN","912","513","1","1","0","1","1","","",""
"","psychophysics","279","7097","0.0-2.0-0.92","kxp","[""l""]","","","","","","null","key","null","null","NaN","912","513","2","0","0","1","0","null","",""
"","psychophysics","280","7104","0.0-2.0-1.92","kxp","[""l""]","","","","","","null","key","null","null","NaN","912","513","2","0","0","1","0","","",""
"","psychophysics","281","7110","0.0-2.0-3.92-0.92","kxp","[""l""]","","","","","","null","key","null","null","NaN","912","513","2","0","0","1","0","","",""
"","psychophysics","282","7117","0.0-2.0-0.93","kxp","[""l""]","","","","","","null","key","null","null","NaN","912","513","1","1","1","1","1","null","",""
"","psychophysics","283","7122","0.0-2.0-1.93","kxp","[""l""]","","","","","","null","key","null","null","NaN","912","513","1","1","1","1","1","","",""
"","psychophysics","284","7128","0.0-2.0-3.93-0.93","kxp","[""l""]","","","","","","null","key","null","null","NaN","912","513","1","1","1","1","1","","",""
"","psychophysics","285","7140","0.0-2.0-0.94","kxp","[""l""]","","","","","","null","key","null","null","6.912000000000262","912","513","2","1","1","0","1","null","",""
"","psychophysics","286","7146","0.0-2.0-1.94","kxp","[""l""]","","","","","","null","key","null","null","NaN","912","513","2","1","1","0","1","","",""
"","psychophysics","287","7153","0.0-2.0-3.94-0.94","kxp","[""l""]","","","","","","null","key","null","null","NaN","912","513","2","1","1","0","1","","",""
"","psychophysics","288","7159","0.0-2.0-0.95","kxp","[""l""]","","","","","","null","key","null","null","NaN","912","513","1","1","0","0","1","null","",""
"","psychophysics","289","7166","0.0-2.0-1.95","kxp","[""l""]","","","","","","null","key","null","null","NaN","912","513","1","1","0","0","1","","",""
"","psychophysics","290","7172","0.0-2.0-3.95-0.95","kxp","[""l""]","","","","","","null","key","null","null","NaN","912","513","1","1","0","0","1","","",""
"","psychophysics","291","7179","0.0-2.0-0.96","kxp","[""l""]","","","","","","null","key","null","null","NaN","912","513","2","0","0","1","0","null","",""
"","psychophysics","292","7187","0.0-2.0-1.96","kxp","[""l""]","","","","","","null","key","null","null","NaN","912","513","2","0","0","1","0","","",""
"","psychophysics","293","7193","0.0-2.0-3.96-0.96","kxp","[""l""]","","","","","","null","key","null","null","NaN","912","513","2","0","0","1","0","","",""
"","psychophysics","294","7199","0.0-2.0-0.97","kxp","[""l""]","","","","","","null","key","null","null","NaN","912","513","1","1","1","1","0","null","",""
"","psychophysics","295","7205","0.0-2.0-1.97","kxp","[""l""]","","","","","","null","key","null","null","NaN","912","513","1","1","1","1","0","","",""
"","psychophysics","296","7218","0.0-2.0-3.97-0.97","kxp","[""l""]","","","","","","null","key","null","null","6.9520000000002256","912","513","1","1","1","1","0","","",""
"","psychophysics","297","7224","0.0-2.0-0.98","kxp","[""l""]","","","","","","null","key","null","null","NaN","912","513","2","1","0","1","1","null","",""
"","psychophysics","298","7229","0.0-2.0-1.98","kxp","[""l""]","","","","","","null","key","null","null","NaN","912","513","2","1","0","1","1","","",""
"","psychophysics","299","7243","0.0-2.0-3.98-0.98","kxp","[""l""]","","","","","","null","key","null","null","6.949000000000524","912","513","2","1","0","1","1","","",""
"","psychophysics","300","7249","0.0-2.0-0.99","kxp","[""l""]","","","","","","null","key","null","null","NaN","912","513","1","0","0","1","1","null","",""
"","psychophysics","301","7255","0.0-2.0-1.99","kxp","[""l""]","","","","","","null","key","null","null","NaN","912","513","1","0","0","1","1","","",""
"","psychophysics","302","7262","0.0-2.0-3.99-0.99","kxp","[""l""]","","","","","","null","key","null","null","NaN","912","513","1","0","0","1","1","","",""
"","html-keyboard-response","303","7267","0.0-2.0-4.99-0.99","kxp","[""l""]","","","","","","null","","","null","","","","","","","","","","<p>You have finished block 1 of 4.<p>You correctly predicted 0% of the races.<p>On the next screen, you will be given a 30 second break. Press the <b>g</b> key to start your break.",""
"","html-keyboard-response","304","7272","0.0-2.0-4.99-1.99-0.99","kxp","[""l""]","","","","","","null","","","null","","","","","","","","","","<p>The experiment will resume in 30 seconds. ",""
"","html-keyboard-response","305","7277","0.0-2.0-4.99-1.99-1.99","kxp","[""l""]","","","","","","null","","","null","","","","","","","","","","<p>The experiment will resume in 29 seconds. ",""
"","html-keyboard-response","306","7281","0.0-2.0-4.99-1.99-2.99","kxp","[""l""]","","","","","","null","","","null","","","","","","","","","","<p>The experiment will resume in 28 seconds. ",""
"","html-keyboard-response","307","7286","0.0-2.0-4.99-1.99-3.99","kxp","[""l""]","","","","","","null","","","null","","","","","","","","","","<p>The experiment will resume in 27 seconds. ",""
"","html-keyboard-response","308","7291","0.0-2.0-4.99-1.99-4.99","kxp","[""l""]","","","","","","null","","","null","","","","","","","","","","<p>The experiment will resume in 26 seconds. ",""
"","html-keyboard-response","309","7296","0.0-2.0-4.99-1.99-5.99","kxp","[""l""]","","","","","","null","","","null","","","","","","","","","","<p>The experiment will resume in 25 seconds. ",""
"","html-keyboard-response","310","7300","0.0-2.0-4.99-1.99-6.99","kxp","[""l""]","","","","","","null","","","null","","","","","","","","","","<p>The experiment will resume in 24 seconds. ",""
"","html-keyboard-response","311","7305","0.0-2.0-4.99-1.99-7.99","kxp","[""l""]","","","","","","null","","","null","","","","","","","","","","<p>The experiment will resume in 23 seconds. ",""
"","html-keyboard-response","312","7309","0.0-2.0-4.99-1.99-8.99","kxp","[""l""]","","","","","","null","","","null","","","","","","","","","","<p>The experiment will resume in 22 seconds. ",""
"","html-keyboard-response","313","7314","0.0-2.0-4.99-1.99-9.99","kxp","[""l""]","","","","","","null","","","null","","","","","","","","","","<p>The experiment will resume in 21 seconds. ",""
"","html-keyboard-response","314","7319","0.0-2.0-4.99-1.99-10.99","kxp","[""l""]","","","","","","null","","","null","","","","","","","","","","<p>The experiment will resume in 20 seconds. ",""
"","html-keyboard-response","315","7323","0.0-2.0-4.99-1.99-11.99","kxp","[""l""]","","","","","","null","","","null","","","","","","","","","","<p>The experiment will resume in 19 seconds. ",""
"","html-keyboard-response","316","7328","0.0-2.0-4.99-1.99-12.99","kxp","[""l""]","","","","","","null","","","null","","","","","","","","","","<p>The experiment will resume in 18 seconds. ",""
"","html-keyboard-response","317","7333","0.0-2.0-4.99-1.99-13.99","kxp","[""l""]","","","","","","null","","","null","","","","","","","","","","<p>The experiment will resume in 17 seconds. ",""
"","html-keyboard-response","318","7337","0.0-2.0-4.99-1.99-14.99","kxp","[""l""]","","","","","","null","","","null","","","","","","","","","","<p>The experiment will resume in 16 seconds. ",""
"","html-keyboard-response","319","7342","0.0-2.0-4.99-1.99-15.99","kxp","[""l""]","","","","","","null","","","null","","","","","","","","","","<p>The experiment will resume in 15 seconds. ",""
"","html-keyboard-response","320","7346","0.0-2.0-4.99-1.99-16.99","kxp","[""l""]","","","","","","null","","","null","","","","","","","","","","<p>The experiment will resume in 14 seconds. ",""
"","html-keyboard-response","321","7351","0.0-2.0-4.99-1.99-17.99","kxp","[""l""]","","","","","","null","","","null","","","","","","","","","","<p>The experiment will resume in 13 seconds. ",""
"","html-keyboard-response","322","7355","0.0-2.0-4.99-1.99-18.99","kxp","[""l""]","","","","","","null","","","null","","","","","","","","","","<p>The experiment will resume in 12 seconds. ",""
"","html-keyboard-response","323","7360","0.0-2.0-4.99-1.99-19.99","kxp","[""l""]","","","","","","null","","","null","","","","","","","","","","<p>The experiment will resume in 11 seconds. ",""
"","html-keyboard-response","324","7365","0.0-2.0-4.99-1.99-20.99","kxp","[""l""]","","","","","","null","","","null","","","","","","","","","","<p>The experiment will resume in 10 seconds. ",""
"","html-keyboard-response","325","7369","0.0-2.0-4.99-1.99-21.99","kxp","[""l""]","","","","","","null","","","null","","","","","","","","","","<p>The experiment will resume in 9 seconds. ",""
"","html-keyboard-response","326","7374","0.0-2.0-4.99-1.99-22.99","kxp","[""l""]","","","","","","null","","","null","","","","","","","","","","<p>The experiment will resume in 8 seconds. ",""
"","html-keyboard-response","327","7379","0.0-2.0-4.99-1.99-23.99","kxp","[""l""]","","","","","","null","","","null","","","","","","","","","","<p>The experiment will resume in 7 seconds. ",""
"","html-keyboard-response","328","7384","0.0-2.0-4.99-1.99-24.99","kxp","[""l""]","","","","","","null","","","null","","","","","","","","","","<p>The experiment will resume in 6 seconds. ",""
"","html-keyboard-response","329","7389","0.0-2.0-4.99-1.99-25.99","kxp","[""l""]","","","","","","null","","","null","","","","","","","","","","<p>The experiment will resume in 5 seconds. ",""
"","html-keyboard-response","330","7394","0.0-2.0-4.99-1.99-26.99","kxp","[""l""]","","","","","","null","","","null","","","","","","","","","","<p>The experiment will resume in 4 seconds. ",""
"","html-keyboard-response","331","7399","0.0-2.0-4.99-1.99-27.99","kxp","[""l""]","","","","","","null","","","null","","","","","","","","","","<p>The experiment will resume in 3 seconds. ",""
"","html-keyboard-response","332","7404","0.0-2.0-4.99-1.99-28.99","kxp","[""l""]","","","","","","null","","","null","","","","","","","","","","<p>The experiment will resume in 2 seconds. ",""
"","html-keyboard-response","333","7409","0.0-2.0-4.99-1.99-29.99","kxp","[""l""]","","","","","","null","","","null","","","","","","","","","","<p>The experiment will resume in 1 seconds. ",""
"","psychophysics","334","7415","0.0-2.0-0.100","kxp","[""l""]","","","","","","null","key","null","null","NaN","912","513","2","1","1","1","1","null","",""
"","psychophysics","335","7421","0.0-2.0-1.100","kxp","[""l""]","","","","","","null","key","null","null","NaN","912","513","2","1","1","1","1","","",""
"","psychophysics","336","7435","0.0-2.0-3.100-0.100","kxp","[""l""]","","","","","","null","key","null","null","6.951000000000022","912","513","2","1","1","1","1","","",""
"","psychophysics","337","7441","0.0-2.0-0.101","kxp","[""l""]","","","","","","null","key","null","null","NaN","912","513","2","1","0","1","0","null","",""
"","psychophysics","338","7446","0.0-2.0-1.101","kxp","[""l""]","","","","","","null","key","null","null","NaN","912","513","2","1","0","1","0","","",""
"","psychophysics","339","7459","0.0-2.0-3.101-0.101","kxp","[""l""]","","","","","","null","key","null","null","6.920000000000073","912","513","2","1","0","1","0","","",""
"","psychophysics","340","7465","0.0-2.0-0.102","kxp","[""l""]","","","","","","null","key","null","null","NaN","912","513","2","1","0","1","1","null","",""
"","psychophysics","341","7472","0.0-2.0-1.102","kxp","[""l""]","","","","","","null","key","null","null","NaN","912","513","2","1","0","1","1","","",""
"","psychophysics","342","7477","0.0-2.0-3.102-0.102","kxp","[""l""]","","","","","","null","key","null","null","NaN","912","513","2","1","0","1","1","","",""
"","psychophysics","343","7483","0.0-2.0-0.103","kxp","[""l""]","","","","","","null","key","null","null","NaN","912","513","1","1","0","1","1","null","",""
"","psychophysics","344","7496","0.0-2.0-1.103","kxp","[""l""]","","","","","","null","key","null","null","NaN","912","513","1","1","0","1","1","","",""
"","psychophysics","345","7503","0.0-2.0-3.103-0.103","kxp","[""l""]","","","","","","null","key","null","null","NaN","912","513","1","1","0","1","1","","",""
"","psychophysics","346","7509","0.0-2.0-0.104","kxp","[""l""]","","","","","","null","key","null","null","NaN","912","513","1","1","1","1","0","null","",""
"","psychophysics","347","7515","0.0-2.0-1.104","kxp","[""l""]","","","","","","null","key","null","null","NaN","912","513","1","1","1","1","0","","",""
"","psychophysics","348","7522","0.0-2.0-3.104-0.104","kxp","[""l""]","","","","","","null","key","null","null","NaN","912","513","1","1","1","1","0","","",""
"","psychophysics","349","7528","0.0-2.0-0.105","kxp","[""l""]","","","","","","null","key","null","null","NaN","912","513","1","1","1","0","1","null","",""
"","psychophysics","350","7534","0.0-2.0-1.105","kxp","[""l""]","","","","","","null","key","null","null","NaN","912","513","1","1","1","0","1","","",""
"","psychophysics","351","7541","0.0-2.0-3.105-0.105","kxp","[""l""]","","","","","","null","key","null","null","NaN","912","513","1","1","1","0","1","","",""
"","psychophysics","352","7548","0.0-2.0-0.106","kxp","[""l""]","","","","","","null","key","null","null","NaN","912","513","2","0","1","1","1","null","",""
"","psychophysics","353","7555","0.0-2.0-1.106","kxp","[""l""]","","","","","","null","key","null","null","NaN","912","513","2","0","1","1","1","","",""
"","psychophysics","354","7561","0.0-2.0-3.106-0.106","kxp","[""l""]","","","","","","null","key","null","null","NaN","912","513","2","0","1","1","1","","",""
"","psychophysics","355","7568","0.0-2.0-0.107","kxp","[""l""]","","","","","","null","key","null","null","NaN","912","513","2","1","0","1","1","null","",""
"","psychophysics","356","7575","0.0-2.0-1.107","kxp","[""l""]","","","","","","null","key","null","null","NaN","912","513","2","1","0","1","1","","",""
"","psychophysics","357","7581","0.0-2.0-3.107-0.107","kxp","[""l""]","","","","","","null","key","null","null","NaN","912","513","2","1","0","1","1","","",""
"","psychophysics","358","7588","0.0-2.0-0.108","kxp","[""l""]","","","","","","null","key","null","null","NaN","912","513","1","0","1","1","1","null","",""
"","psychophysics","359","7595","0.0-2.0-1.108","kxp","[""l""]","","","","","","null","key","null","null","NaN","912","513","1","0","1","1","1","","",""
"","psychophysics","360","7602","0.0-2.0-3.108-0.108","kxp","[""l""]","","","","","","null","key","null","null","NaN","912","513","1","0","1","1","1","","",""
"","psychophysics","361","7609","0.0-2.0-0.109","kxp","[""l""]","","","","","","null","key","null","null","NaN","912","513","1","1","0","1","1","null","",""
"","psychophysics","362","7616","0.0-2.0-1.109","kxp","[""l""]","","","","","","null","key","null","null","NaN","912","513","1","1","0","1","1","","",""
"","psychophysics","363","7623","0.0-2.0-3.109-0.109","kxp","[""l""]","","","","","","null","key","null","null","NaN","912","513","1","1","0","1","1","","",""
"","psychophysics","364","7630","0.0-2.0-0.110","kxp","[""l""]","","","","","","null","key","null","null","NaN","912","513","2","1","0","1","1","null","",""
"","psychophysics","365","7637","0.0-2.0-1.110","kxp","[""l""]","","","","","","null","key","null","null","NaN","912","513","2","1","0","1","1","","",""
"","psychophysics","366","7644","0.0-2.0-3.110-0.110","kxp","[""l""]","","","","","","null","key","null","null","NaN","912","513","2","1","0","1","1","","",""
"","psychophysics","367","7652","0.0-2.0-0.111","kxp","[""l""]","","","","","","null","key","null","null","NaN","912","513","1","0","0","1","1","null","",""
"","psychophysics","368","7659","0.0-2.0-1.111","kxp","[""l""]","","","","","","null","key","null","null","NaN","912","513","1","0","0","1","1","","",""
"","psychophysics","369","7665","0.0-2.0-3.111-0.111","kxp","[""l""]","","","","","","null","key","null","null","NaN","912","513","1","0","0","1","1","","",""
"","psychophysics","370","7673","0.0-2.0-0.112","kxp","[""l""]","","","","","","null","key","null","null","NaN","912","513","1","0","0","1","1","null","",""
"","psychophysics","371","7679","0.0-2.0-1.112","kxp","[""l""]","","","","","","null","key","null","null","NaN","912","513","1","0","0","1","1","","",""
"","psychophysics","372","7685","0.0-2.0-3.112-0.112","kxp","[""l""]","","","","","","null","key","null","null","NaN","912","513","1","0","0","1","1","","",""
"","psychophysics","373","7691","0.0-2.0-0.113","kxp","[""l""]","","","","","","null","key","null","null","NaN","912","513","2","0","1","1","1","null","",""
"","psychophysics","374","7697","0.0-2.0-1.113","kxp","[""l""]","","","","","","null","key","null","null","NaN","912","513","2","0","1","1","1","","",""
"","psychophysics","375","7703","0.0-2.0-3.113-0.113","kxp","[""l""]","","","","","","null","key","null","null","NaN","912","513","2","0","1","1","1","","",""
"","psychophysics","376","7717","0.0-2.0-0.114","kxp","[""l""]","","","","","","null","key","null","null","6.951000000000022","912","513","2","0","1","1","1","null","",""
"","psychophysics","377","7723","0.0-2.0-1.114","kxp","[""l""]","","","","","","null","key","null","null","NaN","912","513","2","0","1","1","1","","",""
"","psychophysics","378","7731","0.0-2.0-3.114-0.114","kxp","[""l""]","","","","","","null","key","null","null","NaN","912","513","2","0","1","1","1","","",""
"","psychophysics","379","7738","0.0-2.0-0.115","kxp","[""l""]","","","","","","null","key","null","null","NaN","912","513","2","1","1","1","0","null","",""
"","psychophysics","380","7744","0.0-2.0-1.115","kxp","[""l""]","","","","","","null","key","null","null","NaN","912","513","2","1","1","1","0","","",""
"","psychophysics","381","7757","0.0-2.0-3.115-0.115","kxp","[""l""]","","","","","","null","key","null","null","6.906999999999243","912","513","2","1","1","1","0","","",""
"","psychophysics","382","7763","0.0-2.0-0.116","kxp","[""l""]","","","","","","null","key","null","null","NaN","912","513","1","0","1","1","1","null","",""
"","psychophysics","383","7769","0.0-2.0-1.116","kxp","[""l""]","","","","","","null","key","null","null","NaN","912","513","1","0","1","1","1","","",""
"","psychophysics","384","7777","0.0-2.0-3.116-0.116","kxp","[""l""]","","","","","","null","key","null","null","NaN","912","513","1","0","1","1","1","","",""
"","psychophysics","385","7784","0.0-2.0-0.117","kxp","[""l""]","","","","","","null","key","null","null","NaN","912","513","1","1","0","0","1","null","",""
"","psychophysics","386","7790","0.0-2.0-1.117","kxp","[""l""]","","","","","","null","key","null","null","NaN","912","513","1","1","0","0","1","","",""
"","psychophysics","387","7796","0.0-2.0-3.117-0.117","kxp","[""l""]","","","","","","null","key","null","null","NaN","912","513","1","1","0","0","1","","",""
"","psychophysics","388","7809","0.0-2.0-0.118","kxp","[""l""]","","","","","","null","key","null","null","NaN","912","513","1","0","0","0","0","null","",""
"","psychophysics","389","7815","0.0-2.0-1.118","kxp","[""l""]","","","","","","null","key","null","null","NaN","912","513","1","0","0","0","0","","",""
"","psychophysics","390","7821","0.0-2.0-3.118-0.118","kxp","[""l""]","","","","","","null","key","null","null","NaN","912","513","1","0","0","0","0","","",""
"","psychophysics","391","7834","0.0-2.0-0.119","kxp","[""l""]","","","","","","null","key","null","null","6.940000000000509","912","513","1","0","1","0","1","null","",""
"","psychophysics","392","7840","0.0-2.0-1.119","kxp","[""l""]","","","","","","null","key","null","null","NaN","912","513","1","0","1","0","1","","",""
"","psychophysics","393","7845","0.0-2.0-3.119-0.119","kxp","[""l""]","","","","","","null","key","null","null","NaN","912","513","1","0","1","0","1","","",""
"","psychophysics","394","7858","0.0-2.0-0.120","kxp","[""l""]","","","","","","null","key","null","null","6.970000000000255","912","513","2","0","1","1","1","null","",""
"","psychophysics","395","7864","0.0-2.0-1.120","kxp","[""l""]","","","","","","null","key","null","null","NaN","912","513","2","0","1","1","1","","",""
"","psychophysics","396","7870","0.0-2.0-3.120-0.120","kxp","[""l""]","","","","","","null","key","null","null","NaN","912","513","2","0","1","1","1","","",""
"","psychophysics","397","7883","0.0-2.0-0.121","kxp","[""l""]","","","","","","null","key","null","null","6.948999999999614","912","513","1","0","1","1","1","null","",""
"","psychophysics","398","7889","0.0-2.0-1.121","kxp","[""l""]","","","","","","null","key","null","null","NaN","912","513","1","0","1","1","1","","",""
"","psychophysics","399","7895","0.0-2.0-3.121-0.121","kxp","[""l""]","","","","","","null","key","null","null","NaN","912","513","1","0","1","1","1","","",""
"","psychophysics","400","7909","0.0-2.0-0.122","kxp","[""l""]","","","","","","null","key","null","null","6.9210000000002765","912","513","2","0","0","1","1","null","",""
"","psychophysics","401","7916","0.0-2.0-1.122","kxp","[""l""]","","","","","","null","key","null","null","NaN","912","513","2","0","0","1","1","","",""
"","psychophysics","402","7923","0.0-2.0-3.122-0.122","kxp","[""l""]","","","","","","null","key","null","null","NaN","912","513","2","0","0","1","1","","",""
"","psychophysics","403","7929","0.0-2.0-0.123","kxp","[""l""]","","","","","","null","key","null","null","NaN","912","513","1","0","0","1","0","null","",""
"","psychophysics","404","7935","0.0-2.0-1.123","kxp","[""l""]","","","","","","null","key","null","null","NaN","912","513","1","0","0","1","0","","",""
"","psychophysics","405","7948","0.0-2.0-3.123-0.123","kxp","[""l""]","","","","","","null","key","null","null","NaN","912","513","1","0","0","1","0","","",""
"","psychophysics","406","7954","0.0-2.0-0.124","kxp","[""l""]","","","","","","null","key","null","null","NaN","912","513","2","1","1","1","0","null","",""
"","psychophysics","407","7960","0.0-2.0-1.124","kxp","[""l""]","","","","","","null","key","null","null","NaN","912","513","2","1","1","1","0","","",""
"","psychophysics","408","7966","0.0-2.0-3.124-0.124","kxp","[""l""]","","","","","","null","key","null","null","NaN","912","513","2","1","1","1","0","","",""
"","psychophysics","409","7972","0.0-2.0-0.125","kxp","[""l""]","","","","","","null","key","null","null","NaN","912","513","1","1","0","0","0","null","",""
"","psychophysics","410","7979","0.0-2.0-1.125","kxp","[""l""]","","","","","","null","key","null","null","NaN","912","513","1","1","0","0","0","","",""
"","psychophysics","411","7985","0.0-2.0-3.125-0.125","kxp","[""l""]","","","","","","null","key","null","null","NaN","912","513","1","1","0","0","0","","",""
"","psychophysics","412","7992","0.0-2.0-0.126","kxp","[""l""]","","","","","","null","key","null","null","NaN","912","513","2","0","1","1","1","null","",""
"","psychophysics","413","7997","0.0-2.0-1.126","kxp","[""l""]","","","","","","null","key","null","null","NaN","912","513","2","0","1","1","1","","",""
"","psychophysics","414","8005","0.0-2.0-3.126-0.126","kxp","[""l""]","","","","","","null","key","null","null","NaN","912","513","2","0","1","1","1","","",""
"","psychophysics","415","8010","0.0-2.0-0.127","kxp","[""l""]","","","","","","null","key","null","null","NaN","912","513","1","0","0","1","0","null","",""
"","psychophysics","416","8016","0.0-2.0-1.127","kxp","[""l""]","","","","","","null","key","null","null","NaN","912","513","1","0","0","1","0","","",""
"","psychophysics","417","8022","0.0-2.0-3.127-0.127","kxp","[""l""]","","","","","","null","key","null","null","NaN","912","513","1","0","0","1","0","","",""
"","psychophysics","418","8028","0.0-2.0-0.128","kxp","[""l""]","","","","","","null","key","null","null","NaN","912","513","2","0","1","1","0","null","",""
"","psychophysics","419","8034","0.0-2.0-1.128","kxp","[""l""]","","","","","","null","key","null","null","NaN","912","513","2","0","1","1","0","","",""
"","psychophysics","420","8042","0.0-2.0-3.128-0.128","kxp","[""l""]","","","","","","null","key","null","null","NaN","912","513","2","0","1","1","0","","",""
"","psychophysics","421","8048","0.0-2.0-0.129","kxp","[""l""]","","","","","","null","key","null","null","NaN","912","513","1","0","1","1","1","null","",""
"","psychophysics","422","8055","0.0-2.0-1.129","kxp","[""l""]","","","","","","null","key","null","null","NaN","912","513","1","0","1","1","1","","",""
"","psychophysics","423","8061","0.0-2.0-3.129-0.129","kxp","[""l""]","","","","","","null","key","null","null","NaN","912","513","1","0","1","1","1","","",""
"","psychophysics","424","8068","0.0-2.0-0.130","kxp","[""l""]","","","","","","null","key","null","null","NaN","912","513","1","1","0","1","1","null","",""
"","psychophysics","425","8074","0.0-2.0-1.130","kxp","[""l""]","","","","","","null","key","null","null","NaN","912","513","1","1","0","1","1","","",""
"","psychophysics","426","8081","0.0-2.0-3.130-0.130","kxp","[""l""]","","","","","","null","key","null","null","NaN","912","513","1","1","0","1","1","","",""
"","psychophysics","427","8087","0.0-2.0-0.131","kxp","[""l""]","","","","","","null","key","null","null","NaN","912","513","2","0","1","1","1","null","",""
"","psychophysics","428","8093","0.0-2.0-1.131","kxp","[""l""]","","","","","","null","key","null","null","NaN","912","513","2","0","1","1","1","","",""
"","psychophysics","429","8099","0.0-2.0-3.131-0.131","kxp","[""l""]","","","","","","null","key","null","null","NaN","912","513","2","0","1","1","1","","",""
"","psychophysics","430","8106","0.0-2.0-0.132","kxp","[""l""]","","","","","","null","key","null","null","NaN","912","513","2","1","0","1","0","null","",""
"","psychophysics","431","8112","0.0-2.0-1.132","kxp","[""l""]","","","","","","null","key","null","null","NaN","912","513","2","1","0","1","0","","",""
"","psychophysics","432","8119","0.0-2.0-3.132-0.132","kxp","[""l""]","","","","","","null","key","null","null","NaN","912","513","2","1","0","1","0","","",""
"","psychophysics","433","8125","0.0-2.0-0.133","kxp","[""l""]","","","","","","null","key","null","null","NaN","912","513","2","0","1","0","1","null","",""
"","psychophysics","434","8131","0.0-2.0-1.133","kxp","[""l""]","","","","","","null","key","null","null","NaN","912","513","2","0","1","0","1","","",""
"","psychophysics","435","8138","0.0-2.0-3.133-0.133","kxp","[""l""]","","","","","","null","key","null","null","NaN","912","513","2","0","1","0","1","","",""
"","psychophysics","436","8145","0.0-2.0-0.134","kxp","[""l""]","","","","","","null","key","null","null","NaN","912","513","1","0","1","1","1","null","",""
"","psychophysics","437","8151","0.0-2.0-1.134","kxp","[""l""]","","","","","","null","key","null","null","NaN","912","513","1","0","1","1","1","","",""
"","psychophysics","438","8157","0.0-2.0-3.134-0.134","kxp","[""l""]","","","","","","null","key","null","null","NaN","912","513","1","0","1","1","1","","",""
"","psychophysics","439","8172","0.0-2.0-0.135","kxp","[""l""]","","","","","","null","key","null","null","6.89600000000064","912","513","1","0","0","1","0","null","",""
"","psychophysics","440","8178","0.0-2.0-1.135","kxp","[""l""]","","","","","","null","key","null","null","NaN","912","513","1","0","0","1","0","","",""
"","psychophysics","441","8184","0.0-2.0-3.135-0.135","kxp","[""l""]","","","","","","null","key","null","null","NaN","912","513","1","0","0","1","0","","",""
"","psychophysics","442","8197","0.0-2.0-0.136","kxp","[""l""]","","","","","","null","key","null","null","6.97400000000016","912","513","2","1","1","1","1","null","",""
"","psychophysics","443","8203","0.0-2.0-1.136","kxp","[""l""]","","","","","","null","key","null","null","NaN","912","513","2","1","1","1","1","","",""
"","psychophysics","444","8210","0.0-2.0-3.136-0.136","kxp","[""l""]","","","","","","null","key","null","null","NaN","912","513","2","1","1","1","1","","",""
"","psychophysics","445","8217","0.0-2.0-0.137","kxp","[""l""]","","","","","","null","key","null","null","NaN","912","513","1","1","1","1","1","null","",""
"","psychophysics","446","8223","0.0-2.0-1.137","kxp","[""l""]","","","","","","null","key","null","null","NaN","912","513","1","1","1","1","1","","",""
"","psychophysics","447","8229","0.0-2.0-3.137-0.137","kxp","[""l""]","","","","","","null","key","null","null","NaN","912","513","1","1","1","1","1","","",""
"","psychophysics","448","8235","0.0-2.0-0.138","kxp","[""l""]","","","","","","null","key","null","null","NaN","912","513","2","0","1","1","1","null","",""
"","psychophysics","449","8241","0.0-2.0-1.138","kxp","[""l""]","","","","","","null","key","null","null","NaN","912","513","2","0","1","1","1","","",""
"","psychophysics","450","8249","0.0-2.0-3.138-0.138","kxp","[""l""]","","","","","","null","key","null","null","NaN","912","513","2","0","1","1","1","","",""
"","psychophysics","451","8256","0.0-2.0-0.139","kxp","[""l""]","","","","","","null","key","null","null","NaN","912","513","1","1","1","1","0","null","",""
"","psychophysics","452","8262","0.0-2.0-1.139","kxp","[""l""]","","","","","","null","key","null","null","NaN","912","513","1","1","1","1","0","","",""
"","psychophysics","453","8268","0.0-2.0-3.139-0.139","kxp","[""l""]","","","","","","null","key","null","null","NaN","912","513","1","1","1","1","0","","",""
"","psychophysics","454","8276","0.0-2.0-0.140","kxp","[""l""]","","","","","","null","key","null","null","NaN","912","513","1","0","0","0","0","null","",""
"","psychophysics","455","8282","0.0-2.0-1.140","kxp","[""l""]","","","","","","null","key","null","null","NaN","912","513","1","0","0","0","0","","",""
"","psychophysics","456","8289","0.0-2.0-3.140-0.140","kxp","[""l""]","","","","","","null","key","null","null","NaN","912","513","1","0","0","0","0","","",""
"","psychophysics","457","8295","0.0-2.0-0.141","kxp","[""l""]","","","","","","null","key","null","null","NaN","912","513","1","0","0","1","1","null","",""
"","psychophysics","458","8303","0.0-2.0-1.141","kxp","[""l""]","","","","","","null","key","null","null","6.923000000000684","912","513","1","0","0","1","1","","",""
"","psychophysics","459","8309","0.0-2.0-3.141-0.141","kxp","[""l""]","","","","","","null","key","null","null","NaN","912","513","1","0","0","1","1","","",""
"","psychophysics","460","8315","0.0-2.0-0.142","kxp","[""l""]","","","","","","null","key","null","null","NaN","912","513","1","0","1","0","1","null","",""
"","psychophysics","461","8322","0.0-2.0-1.142","kxp","[""l""]","","","","","","null","key","null","null","NaN","912","513","1","0","1","0","1","","",""
"","psychophysics","462","8329","0.0-2.0-3.142-0.142","kxp","[""l""]","","","","","","null","key","null","null","NaN","912","513","1","0","1","0","1","","",""
"","psychophysics","463","8335","0.0-2.0-0.143","kxp","[""l""]","","","","","","null","key","null","null","NaN","912","513","2","0","1","1","1","null","",""
"","psychophysics","464","8341","0.0-2.0-1.143","kxp","[""l""]","","","","","","null","key","null","null","NaN","912","513","2","0","1","1","1","","",""
"","psychophysics","465","8354","0.0-2.0-3.143-0.143","kxp","[""l""]","","","","","","null","key","null","null","6.924999999999272","912","513","2","0","1","1","1","","",""
"","psychophysics","466","8360","0.0-2.0-0.144","kxp","[""l""]","","","","","","null","key","null","null","NaN","912","513","2","0","0","1","1","null","",""
"","psychophysics","467","8367","0.0-2.0-1.144","kxp","[""l""]","","","","","","null","key","null","null","NaN","912","513","2","0","0","1","1","","",""
"","psychophysics","468","8373","0.0-2.0-3.144-0.144","kxp","[""l""]","","","","","","null","key","null","null","NaN","912","513","2","0","0","1","1","","",""
"","psychophysics","469","8381","0.0-2.0-0.145","kxp","[""l""]","","","","","","null","key","null","null","NaN","912","513","2","0","0","1","1","null","",""
"","psychophysics","470","8387","0.0-2.0-1.145","kxp","[""l""]","","","","","","null","key","null","null","NaN","912","513","2","0","0","1","1","","",""
"","psychophysics","471","8394","0.0-2.0-3.145-0.145","kxp","[""l""]","","","","","","null","key","null","null","NaN","912","513","2","0","0","1","1","","",""
"","psychophysics","472","8400","0.0-2.0-0.146","kxp","[""l""]","","","","","","null","key","null","null","NaN","912","513","2","0","0","0","0","null","",""
"","psychophysics","473","8406","0.0-2.0-1.146","kxp","[""l""]","","","","","","null","key","null","null","NaN","912","513","2","0","0","0","0","","",""
"","psychophysics","474","8412","0.0-2.0-3.146-0.146","kxp","[""l""]","","","","","","null","key","null","null","NaN","912","513","2","0","0","0","0","","",""
"","psychophysics","475","8419","0.0-2.0-0.147","kxp","[""l""]","","","","","","null","key","null","null","NaN","912","513","2","1","1","1","1","null","",""
"","psychophysics","476","8425","0.0-2.0-1.147","kxp","[""l""]","","","","","","null","key","null","null","NaN","912","513","2","1","1","1","1","","",""
"","psychophysics","477","8431","0.0-2.0-3.147-0.147","kxp","[""l""]","","","","","","null","key","null","null","NaN","912","513","2","1","1","1","1","","",""
"","psychophysics","478","8437","0.0-2.0-0.148","kxp","[""l""]","","","","","","null","key","null","null","NaN","912","513","1","1","0","1","1","null","",""
"","psychophysics","479","8443","0.0-2.0-1.148","kxp","[""l""]","","","","","","null","key","null","null","NaN","912","513","1","1","0","1","1","","",""
"","psychophysics","480","8449","0.0-2.0-3.148-0.148","kxp","[""l""]","","","","","","null","key","null","null","NaN","912","513","1","1","0","1","1","","",""
"","psychophysics","481","8462","0.0-2.0-0.149","kxp","[""l""]","","","","","","null","key","null","null","6.9650000000001455","912","513","2","1","1","0","1","null","",""
"","psychophysics","482","8469","0.0-2.0-1.149","kxp","[""l""]","","","","","","null","key","null","null","NaN","912","513","2","1","1","0","1","","",""
"","psychophysics","483","8475","0.0-2.0-3.149-0.149","kxp","[""l""]","","","","","","null","key","null","null","NaN","912","513","2","1","1","0","1","","",""
"","psychophysics","484","8481","0.0-2.0-0.150","kxp","[""l""]","","","","","","null","key","null","null","NaN","912","513","2","0","0","0","1","null","",""
"","psychophysics","485","8486","0.0-2.0-1.150","kxp","[""l""]","","","","","","null","key","null","null","NaN","912","513","2","0","0","0","1","","",""
"","psychophysics","486","8495","0.0-2.0-3.150-0.150","kxp","[""l""]","","","","","","null","key","null","null","NaN","912","513","2","0","0","0","1","","",""
"","psychophysics","487","8501","0.0-2.0-0.151","kxp","[""l""]","","","","","","null","key","null","null","NaN","912","513","1","0","1","0","1","null","",""
"","psychophysics","488","8507","0.0-2.0-1.151","kxp","[""l""]","","","","","","null","key","null","null","NaN","912","513","1","0","1","0","1","","",""
"","psychophysics","489","8520","0.0-2.0-3.151-0.151","kxp","[""l""]","","","","","","null","key","null","null","6.958999999998923","912","513","1","0","1","0","1","","",""
"","psychophysics","490","8526","0.0-2.0-0.152","kxp","[""l""]","","","","","","null","key","null","null","NaN","912","513","1","0","1","1","1","null","",""
"","psychophysics","491","8533","0.0-2.0-1.152","kxp","[""l""]","","","","","","null","key","null","null","NaN","912","513","1","0","1","1","1","","",""
"","psychophysics","492","8540","0.0-2.0-3.152-0.152","kxp","[""l""]","","","","","","null","key","null","null","NaN","912","513","1","0","1","1","1","","",""
"","psychophysics","493","8548","0.0-2.0-0.153","kxp","[""l""]","","","","","","null","key","null","null","NaN","912","513","1","0","1","1","0","null","",""
"","psychophysics","494","8554","0.0-2.0-1.153","kxp","[""l""]","","","","","","null","key","null","null","NaN","912","513","1","0","1","1","0","","",""
"","psychophysics","495","8561","0.0-2.0-3.153-0.153","kxp","[""l""]","","","","","","null","key","null","null","NaN","912","513","1","0","1","1","0","","",""
"","psychophysics","496","8567","0.0-2.0-0.154","kxp","[""l""]","","","","","","null","key","null","null","NaN","912","513","1","0","1","1","1","null","",""
"","psychophysics","497","8574","0.0-2.0-1.154","kxp","[""l""]","","","","","","null","key","null","null","NaN","912","513","1","0","1","1","1","","",""
"","psychophysics","498","8580","0.0-2.0-3.154-0.154","kxp","[""l""]","","","","","","null","key","null","null","NaN","912","513","1","0","1","1","1","","",""
"","psychophysics","499","8585","0.0-2.0-0.155","kxp","[""l""]","","","","","","null","key","null","null","NaN","912","513","1","0","0","0","1","null","",""
"","psychophysics","500","8592","0.0-2.0-1.155","kxp","[""l""]","","","","","","null","key","null","null","NaN","912","513","1","0","0","0","1","","",""
"","psychophysics","501","8599","0.0-2.0-3.155-0.155","kxp","[""l""]","","","","","","null","key","null","null","NaN","912","513","1","0","0","0","1","","",""
"","psychophysics","502","8606","0.0-2.0-0.156","kxp","[""l""]","","","","","","null","key","null","null","NaN","912","513","2","1","1","1","1","null","",""
"","psychophysics","503","8612","0.0-2.0-1.156","kxp","[""l""]","","","","","","null","key","null","null","NaN","912","513","2","1","1","1","1","","",""
"","psychophysics","504","8618","0.0-2.0-3.156-0.156","kxp","[""l""]","","","","","","null","key","null","null","NaN","912","513","2","1","1","1","1","","",""
"","psychophysics","505","8624","0.0-2.0-0.157","kxp","[""l""]","","","","","","null","key","null","null","NaN","912","513","1","0","0","1","0","null","",""
"","psychophysics","506","8632","0.0-2.0-1.157","kxp","[""l""]","","","","","","null","key","null","null","NaN","912","513","1","0","0","1","0","","",""
"","psychophysics","507","8639","0.0-2.0-3.157-0.157","kxp","[""l""]","","","","","","null","key","null","null","NaN","912","513","1","0","0","1","0","","",""
"","psychophysics","508","8645","0.0-2.0-0.158","kxp","[""l""]","","","","","","null","key","null","null","NaN","912","513","1","1","0","1","1","null","",""
"","psychophysics","509","8651","0.0-2.0-1.158","kxp","[""l""]","","","","","","null","key","null","null","NaN","912","513","1","1","0","1","1","","",""
"","psychophysics","510","8658","0.0-2.0-3.158-0.158","kxp","[""l""]","","","","","","null","key","null","null","NaN","912","513","1","1","0","1","1","","",""
"","psychophysics","511","8664","0.0-2.0-0.159","kxp","[""l""]","","","","","","null","key","null","null","NaN","912","513","1","1","0","1","1","null","",""
"","psychophysics","512","8670","0.0-2.0-1.159","kxp","[""l""]","","","","","","null","key","null","null","NaN","912","513","1","1","0","1","1","","",""
"","psychophysics","513","8676","0.0-2.0-3.159-0.159","kxp","[""l""]","","","","","","null","key","null","null","NaN","912","513","1","1","0","1","1","","",""
"","psychophysics","514","8683","0.0-2.0-0.160","kxp","[""l""]","","","","","","null","key","null","null","NaN","912","513","2","0","0","1","0","null","",""
"","psychophysics","515","8690","0.0-2.0-1.160","kxp","[""l""]","","","","","","null","key","null","null","NaN","912","513","2","0","0","1","0","","",""
"","psychophysics","516","8696","0.0-2.0-3.160-0.160","kxp","[""l""]","","","","","","null","key","null","null","NaN","912","513","2","0","0","1","0","","",""
"","psychophysics","517","8703","0.0-2.0-0.161","kxp","[""l""]","","","","","","null","key","null","null","NaN","912","513","1","1","0","1","1","null","",""
"","psychophysics","518","8708","0.0-2.0-1.161","kxp","[""l""]","","","","","","null","key","null","null","NaN","912","513","1","1","0","1","1","","",""
"","psychophysics","519","8715","0.0-2.0-3.161-0.161","kxp","[""l""]","","","","","","null","key","null","null","NaN","912","513","1","1","0","1","1","","",""
"","psychophysics","520","8721","0.0-2.0-0.162","kxp","[""l""]","","","","","","null","key","null","null","NaN","912","513","1","1","1","1","1","null","",""
"","psychophysics","521","8727","0.0-2.0-1.162","kxp","[""l""]","","","","","","null","key","null","null","NaN","912","513","1","1","1","1","1","","",""
"","psychophysics","522","8735","0.0-2.0-3.162-0.162","kxp","[""l""]","","","","","","null","key","null","null","NaN","912","513","1","1","1","1","1","","",""
"","psychophysics","523","8742","0.0-2.0-0.163","kxp","[""l""]","","","","","","null","key","null","null","NaN","912","513","2","0","0","1","1","null","",""
"","psychophysics","524","8748","0.0-2.0-1.163","kxp","[""l""]","","","","","","null","key","null","null","NaN","912","513","2","0","0","1","1","","",""
"","psychophysics","525","8754","0.0-2.0-3.163-0.163","kxp","[""l""]","","","","","","null","key","null","null","NaN","912","513","2","0","0","1","1","","",""
"","psychophysics","526","8768","0.0-2.0-0.164","kxp","[""l""]","","","","","","null","key","null","null","6.905000000000655","912","513","2","0","0","1","0","null","",""
"","psychophysics","527","8774","0.0-2.0-1.164","kxp","[""l""]","","","","","","null","key","null","null","NaN","912","513","2","0","0","1","0","","",""
"","psychophysics","528","8780","0.0-2.0-3.164-0.164","kxp","[""l""]","","","","","","null","key","null","null","NaN","912","513","2","0","0","1","0","","",""
"","psychophysics","529","8786","0.0-2.0-0.165","kxp","[""l""]","","","","","","null","key","null","null","NaN","912","513","2","0","0","1","1","null","",""
"","psychophysics","530","8792","0.0-2.0-1.165","kxp","[""l""]","","","","","","null","key","null","null","NaN","912","513","2","0","0","1","1","","",""
"","psychophysics","531","8798","0.0-2.0-3.165-0.165","kxp","[""l""]","","","","","","null","key","null","null","NaN","912","513","2","0","0","1","1","","",""
"","psychophysics","532","8804","0.0-2.0-0.166","kxp","[""l""]","","","","","","null","key","null","null","NaN","912","513","1","0","0","0","1","null","",""
"","psychophysics","533","8810","0.0-2.0-1.166","kxp","[""l""]","","","","","","null","key","null","null","NaN","912","513","1","0","0","0","1","","",""
"","psychophysics","534","8823","0.0-2.0-3.166-0.166","kxp","[""l""]","","","","","","null","key","null","null","NaN","912","513","1","0","0","0","1","","",""
"","psychophysics","535","8829","0.0-2.0-0.167","kxp","[""l""]","","","","","","null","key","null","null","NaN","912","513","2","1","1","1","1","null","",""
"","psychophysics","536","8835","0.0-2.0-1.167","kxp","[""l""]","","","","","","null","key","null","null","NaN","912","513","2","1","1","1","1","","",""
"","psychophysics","537","8848","0.0-2.0-3.167-0.167","kxp","[""l""]","","","","","","null","key","null","null","6.968000000000757","912","513","2","1","1","1","1","","",""
"","psychophysics","538","8854","0.0-2.0-0.168","kxp","[""l""]","","","","","","null","key","null","null","NaN","912","513","1","0","0","1","0","null","",""
"","psychophysics","539","8860","0.0-2.0-1.168","kxp","[""l""]","","","","","","null","key","null","null","NaN","912","513","1","0","0","1","0","","",""
"","psychophysics","540","8867","0.0-2.0-3.168-0.168","kxp","[""l""]","","","","","","null","key","null","null","NaN","912","513","1","0","0","1","0","","",""
"","psychophysics","541","8873","0.0-2.0-0.169","kxp","[""l""]","","","","","","null","key","null","null","NaN","912","513","1","1","1","1","1","null","",""
"","psychophysics","542","8880","0.0-2.0-1.169","kxp","[""l""]","","","","","","null","key","null","null","NaN","912","513","1","1","1","1","1","","",""
"","psychophysics","543","8887","0.0-2.0-3.169-0.169","kxp","[""l""]","","","","","","null","key","null","null","NaN","912","513","1","1","1","1","1","","",""
"","psychophysics","544","8893","0.0-2.0-0.170","kxp","[""l""]","","","","","","null","key","null","null","NaN","912","513","1","0","0","1","0","null","",""
"","psychophysics","545","8899","0.0-2.0-1.170","kxp","[""l""]","","","","","","null","key","null","null","NaN","912","513","1","0","0","1","0","","",""
"","psychophysics","546","8906","0.0-2.0-3.170-0.170","kxp","[""l""]","","","","","","null","key","null","null","NaN","912","513","1","0","0","1","0","","",""
"","psychophysics","547","8912","0.0-2.0-0.171","kxp","[""l""]","","","","","","null","key","null","null","NaN","912","513","1","1","1","0","1","null","",""
"","psychophysics","548","8918","0.0-2.0-1.171","kxp","[""l""]","","","","","","null","key","null","null","NaN","912","513","1","1","1","0","1","","",""
"","psychophysics","549","8925","0.0-2.0-3.171-0.171","kxp","[""l""]","","","","","","null","key","null","null","NaN","912","513","1","1","1","0","1","","",""
"","psychophysics","550","8932","0.0-2.0-0.172","kxp","[""l""]","","","","","","null","key","null","null","NaN","912","513","1","0","0","1","1","null","",""
"","psychophysics","551","8937","0.0-2.0-1.172","kxp","[""l""]","","","","","","null","key","null","null","NaN","912","513","1","0","0","1","1","","",""
"","psychophysics","552","8943","0.0-2.0-3.172-0.172","kxp","[""l""]","","","","","","null","key","null","null","NaN","912","513","1","0","0","1","1","","",""
"","psychophysics","553","8951","0.0-2.0-0.173","kxp","[""l""]","","","","","","null","key","null","null","NaN","912","513","2","1","1","1","0","null","",""
"","psychophysics","554","8957","0.0-2.0-1.173","kxp","[""l""]","","","","","","null","key","null","null","NaN","912","513","2","1","1","1","0","","",""
"","psychophysics","555","8964","0.0-2.0-3.173-0.173","kxp","[""l""]","","","","","","null","key","null","null","NaN","912","513","2","1","1","1","0","","",""
"","psychophysics","556","8970","0.0-2.0-0.174","kxp","[""l""]","","","","","","null","key","null","null","NaN","912","513","2","0","0","1","0","null","",""
"","psychophysics","557","8977","0.0-2.0-1.174","kxp","[""l""]","","","","","","null","key","null","null","NaN","912","513","2","0","0","1","0","","",""
"","psychophysics","558","8990","0.0-2.0-3.174-0.174","kxp","[""l""]","","","","","","null","key","null","null","6.92699999999968","912","513","2","0","0","1","0","","",""
"","psychophysics","559","8996","0.0-2.0-0.175","kxp","[""l""]","","","","","","null","key","null","null","NaN","912","513","1","1","1","1","1","null","",""
"","psychophysics","560","9002","0.0-2.0-1.175","kxp","[""l""]","","","","","","null","key","null","null","NaN","912","513","1","1","1","1","1","","",""
"","psychophysics","561","9008","0.0-2.0-3.175-0.175","kxp","[""l""]","","","","","","null","key","null","null","NaN","912","513","1","1","1","1","1","","",""
"","psychophysics","562","9015","0.0-2.0-0.176","kxp","[""l""]","","","","","","null","key","null","null","NaN","912","513","1","1","1","1","1","null","",""
"","psychophysics","563","9021","0.0-2.0-1.176","kxp","[""l""]","","","","","","null","key","null","null","NaN","912","513","1","1","1","1","1","","",""
"","psychophysics","564","9027","0.0-2.0-3.176-0.176","kxp","[""l""]","","","","","","null","key","null","null","NaN","912","513","1","1","1","1","1","","",""
"","psychophysics","565","9033","0.0-2.0-0.177","kxp","[""l""]","","","","","","null","key","null","null","NaN","912","513","2","0","0","1","1","null","",""
"","psychophysics","566","9039","0.0-2.0-1.177","kxp","[""l""]","","","","","","null","key","null","null","NaN","912","513","2","0","0","1","1","","",""
"","psychophysics","567","9046","0.0-2.0-3.177-0.177","kxp","[""l""]","","","","","","null","key","null","null","NaN","912","513","2","0","0","1","1","","",""
"","psychophysics","568","9053","0.0-2.0-0.178","kxp","[""l""]","","","","","","null","key","null","null","NaN","912","513","1","0","1","1","1","null","",""
"","psychophysics","569","9059","0.0-2.0-1.178","kxp","[""l""]","","","","","","null","key","null","null","NaN","912","513","1","0","1","1","1","","",""
"","psychophysics","570","9065","0.0-2.0-3.178-0.178","kxp","[""l""]","","","","","","null","key","null","null","NaN","912","513","1","0","1","1","1","","",""
"","psychophysics","571","9072","0.0-2.0-0.179","kxp","[""l""]","","","","","","null","key","null","null","NaN","912","513","1","1","1","0","1","null","",""
"","psychophysics","572","9077","0.0-2.0-1.179","kxp","[""l""]","","","","","","null","key","null","null","NaN","912","513","1","1","1","0","1","","",""
"","psychophysics","573","9083","0.0-2.0-3.179-0.179","kxp","[""l""]","","","","","","null","key","null","null","NaN","912","513","1","1","1","0","1","","",""
"","psychophysics","574","9089","0.0-2.0-0.180","kxp","[""l""]","","","","","","null","key","null","null","NaN","912","513","2","0","1","1","1","null","",""
"","psychophysics","575","9097","0.0-2.0-1.180","kxp","[""l""]","","","","","","null","key","null","null","NaN","912","513","2","0","1","1","1","","",""
"","psychophysics","576","9104","0.0-2.0-3.180-0.180","kxp","[""l""]","","","","","","null","key","null","null","NaN","912","513","2","0","1","1","1","","",""
"","psychophysics","577","9110","0.0-2.0-0.181","kxp","[""l""]","","","","","","null","key","null","null","NaN","912","513","1","0","0","0","1","null","",""
"","psychophysics","578","9117","0.0-2.0-1.181","kxp","[""l""]","","","","","","null","key","null","null","NaN","912","513","1","0","0","0","1","","",""
"","psychophysics","579","9124","0.0-2.0-3.181-0.181","kxp","[""l""]","","","","","","null","key","null","null","NaN","912","513","1","0","0","0","1","","",""
"","psychophysics","580","9130","0.0-2.0-0.182","kxp","[""l""]","","","","","","null","key","null","null","NaN","912","513","2","1","1","1","1","null","",""
"","psychophysics","581","9136","0.0-2.0-1.182","kxp","[""l""]","","","","","","null","key","null","null","NaN","912","513","2","1","1","1","1","","",""
"","psychophysics","582","9150","0.0-2.0-3.182-0.182","kxp","[""l""]","","","","","","null","key","null","null","6.957000000000335","912","513","2","1","1","1","1","","",""
"","psychophysics","583","9155","0.0-2.0-0.183","kxp","[""l""]","","","","","","null","key","null","null","NaN","912","513","1","0","1","1","1","null","",""
"","psychophysics","584","9161","0.0-2.0-1.183","kxp","[""l""]","","","","","","null","key","null","null","NaN","912","513","1","0","1","1","1","","",""
"","psychophysics","585","9168","0.0-2.0-3.183-0.183","kxp","[""l""]","","","","","","null","key","null","null","NaN","912","513","1","0","1","1","1","","",""
"","psychophysics","586","9174","0.0-2.0-0.184","kxp","[""l""]","","","","","","null","key","null","null","NaN","912","513","1","1","1","1","1","null","",""
"","psychophysics","587","9180","0.0-2.0-1.184","kxp","[""l""]","","","","","","null","key","null","null","NaN","912","513","1","1","1","1","1","","",""
"","psychophysics","588","9187","0.0-2.0-3.184-0.184","kxp","[""l""]","","","","","","null","key","null","null","NaN","912","513","1","1","1","1","1","","",""
"","psychophysics","589","9192","0.0-2.0-0.185","kxp","[""l""]","","","","","","null","key","null","null","NaN","912","513","1","1","1","0","0","null","",""
"","psychophysics","590","9199","0.0-2.0-1.185","kxp","[""l""]","","","","","","null","key","null","null","NaN","912","513","1","1","1","0","0","","",""
"","psychophysics","591","9206","0.0-2.0-3.185-0.185","kxp","[""l""]","","","","","","null","key","null","null","NaN","912","513","1","1","1","0","0","","",""
"","psychophysics","592","9213","0.0-2.0-0.186","kxp","[""l""]","","","","","","null","key","null","null","NaN","912","513","2","1","0","1","1","null","",""
"","psychophysics","593","9220","0.0-2.0-1.186","kxp","[""l""]","","","","","","null","key","null","null","NaN","912","513","2","1","0","1","1","","",""
"","psychophysics","594","9225","0.0-2.0-3.186-0.186","kxp","[""l""]","","","","","","null","key","null","null","NaN","912","513","2","1","0","1","1","","",""
"","psychophysics","595","9239","0.0-2.0-0.187","kxp","[""l""]","","","","","","null","key","null","null","6.960000000000946","912","513","1","1","1","1","1","null","",""
"","psychophysics","596","9246","0.0-2.0-1.187","kxp","[""l""]","","","","","","null","key","null","null","NaN","912","513","1","1","1","1","1","","",""
"","psychophysics","597","9251","0.0-2.0-3.187-0.187","kxp","[""l""]","","","","","","null","key","null","null","NaN","912","513","1","1","1","1","1","","",""
"","psychophysics","598","9258","0.0-2.0-0.188","kxp","[""l""]","","","","","","null","key","null","null","NaN","912","513","1","1","1","0","0","null","",""
"","psychophysics","599","9264","0.0-2.0-1.188","kxp","[""l""]","","","","","","null","key","null","null","NaN","912","513","1","1","1","0","0","","",""
"","psychophysics","600","9270","0.0-2.0-3.188-0.188","kxp","[""l""]","","","","","","null","key","null","null","NaN","912","513","1","1","1","0","0","","",""
"","psychophysics","601","9277","0.0-2.0-0.189","kxp","[""l""]","","","","","","null","key","null","null","NaN","912","513","2","0","0","0","0","null","",""
"","psychophysics","602","9284","0.0-2.0-1.189","kxp","[""l""]","","","","","","null","key","null","null","NaN","912","513","2","0","0","0","0","","",""
"","psychophysics","603","9291","0.0-2.0-3.189-0.189","kxp","[""l""]","","","","","","null","key","null","null","NaN","912","513","2","0","0","0","0","","",""
"","psychophysics","604","9298","0.0-2.0-0.190","kxp","[""l""]","","","","","","null","key","null","null","NaN","912","513","1","0","1","1","0","null","",""
"","psychophysics","605","9305","0.0-2.0-1.190","kxp","[""l""]","","","","","","null","key","null","null","NaN","912","513","1","0","1","1","0","","",""
"","psychophysics","606","9311","0.0-2.0-3.190-0.190","kxp","[""l""]","","","","","","null","key","null","null","NaN","912","513","1","0","1","1","0","","",""
"","psychophysics","607","9318","0.0-2.0-0.191","kxp","[""l""]","","","","","","null","key","null","null","NaN","912","513","2","0","0","0","0","null","",""
"","psychophysics","608","9324","0.0-2.0-1.191","kxp","[""l""]","","","","","","null","key","null","null","NaN","912","513","2","0","0","0","0","","",""
"","psychophysics","609","9331","0.0-2.0-3.191-0.191","kxp","[""l""]","","","","","","null","key","null","null","NaN","912","513","2","0","0","0","0","","",""
"","psychophysics","610","9337","0.0-2.0-0.192","kxp","[""l""]","","","","","","null","key","null","null","NaN","912","513","1","0","1","1","0","null","",""
"","psychophysics","611","9342","0.0-2.0-1.192","kxp","[""l""]","","","","","","null","key","null","null","NaN","912","513","1","0","1","1","0","","",""
"","psychophysics","612","9349","0.0-2.0-3.192-0.192","kxp","[""l""]","","","","","","null","key","null","null","NaN","912","513","1","0","1","1","0","","",""
"","psychophysics","613","9355","0.0-2.0-0.193","kxp","[""l""]","","","","","","null","key","null","null","NaN","912","513","2","0","1","1","1","null","",""
"","psychophysics","614","9360","0.0-2.0-1.193","kxp","[""l""]","","","","","","null","key","null","null","NaN","912","513","2","0","1","1","1","","",""
"","psychophysics","615","9368","0.0-2.0-3.193-0.193","kxp","[""l""]","","","","","","null","key","null","null","NaN","912","513","2","0","1","1","1","","",""
"","psychophysics","616","9374","0.0-2.0-0.194","kxp","[""l""]","","","","","","null","key","null","null","NaN","912","513","2","1","0","1","1","null","",""
"","psychophysics","617","9381","0.0-2.0-1.194","kxp","[""l""]","","","","","","null","key","null","null","NaN","912","513","2","1","0","1","1","","",""
"","psychophysics","618","9387","0.0-2.0-3.194-0.194","kxp","[""l""]","","","","","","null","key","null","null","NaN","912","513","2","1","0","1","1","","",""
"","psychophysics","619","9393","0.0-2.0-0.195","kxp","[""l""]","","","","","","null","key","null","null","NaN","912","513","1","0","0","1","0","null","",""
"","psychophysics","620","9399","0.0-2.0-1.195","kxp","[""l""]","","","","","","null","key","null","null","NaN","912","513","1","0","0","1","0","","",""
"","psychophysics","621","9411","0.0-2.0-3.195-0.195","kxp","[""l""]","","","","","","null","key","null","null","6.938000000000102","912","513","1","0","0","1","0","","",""
"","psychophysics","622","9418","0.0-2.0-0.196","kxp","[""l""]","","","","","","null","key","null","null","NaN","912","513","1","0","1","1","1","null","",""
"","psychophysics","623","9424","0.0-2.0-1.196","kxp","[""l""]","","","","","","null","key","null","null","NaN","912","513","1","0","1","1","1","","",""
"","psychophysics","624","9430","0.0-2.0-3.196-0.196","kxp","[""l""]","","","","","","null","key","null","null","NaN","912","513","1","0","1","1","1","","",""
"","psychophysics","625","9436","0.0-2.0-0.197","kxp","[""l""]","","","","","","null","key","null","null","NaN","912","513","1","1","1","0","1","null","",""
"","psychophysics","626","9441","0.0-2.0-1.197","kxp","[""l""]","","","","","","null","key","null","null","NaN","912","513","1","1","1","0","1","","",""
"","psychophysics","627","9454","0.0-2.0-3.197-0.197","kxp","[""l""]","","","","","","null","key","null","null","6.94800000000032","912","513","1","1","1","0","1","","",""
