subID,trialNum,cntBalance,correct,rt,winner,p1conf,p2conf,p1rslt,p2rslt,
0uk,1,L,true,4981,1,1,1,1,1,
0uk,2,L,true,3162,2,1,1,1,1,
0uk,3,L,false,2632,1,1,1,1,0,
0uk,4,L,true,1705,2,1,0,1,0,
0uk,5,L,true,1734,2,1,0,1,1,
0uk,6,L,false,1558,2,1,1,1,0,
0uk,7,L,false,3964,2,0,0,0,0,
0uk,8,L,true,1960,2,0,1,1,1,
0uk,9,L,false,1221,1,0,1,1,0,
0uk,10,L,false,1822,1,1,0,0,1,
0uk,11,L,false,1971,2,0,1,0,0,
0uk,12,L,true,1151,2,0,0,1,1,
0uk,13,L,true,1488,2,1,0,1,0,
0uk,14,L,false,2333,2,1,1,0,1,
0uk,15,L,false,814,1,0,0,0,0,
0uk,16,L,true,1184,2,1,1,1,1,
0uk,17,L,true,248,2,1,1,1,0,
0uk,18,L,false,534,1,0,1,0,0,
0uk,19,L,false,600,1,1,1,1,0,
0uk,20,L,false,2272,2,1,1,1,0,
0uk,21,L,true,694,2,0,0,0,1,
0uk,22,L,true,719,2,1,0,0,1,
0uk,23,L,true,761,1,1,0,1,1,
0uk,24,L,false,1460,1,0,1,0,0,
0uk,25,L,false,352,2,1,0,1,1,
0uk,26,L,true,397,2,1,0,1,1,
0uk,27,L,false,388,1,0,1,1,1,
0uk,28,L,false,313,2,0,1,1,0,
0uk,29,L,false,248,1,1,1,1,1,
0uk,30,L,false,619,1,0,1,1,0,
0uk,31,L,false,352,2,1,1,0,1,
0uk,32,L,true,27,2,0,0,1,1,
0uk,33,L,true,215,1,0,0,1,0,
0uk,34,L,true,658,2,1,1,1,0,
0uk,35,L,true,248,2,1,1,1,0,
0uk,36,L,true,117,1,1,1,1,1,
0uk,37,L,false,106,2,1,0,1,1,
0uk,38,L,true,454,2,0,1,1,1,
0uk,39,L,false,392,2,0,0,0,0,
0uk,40,L,true,1609,2,1,1,1,1,
0uk,41,L,true,553,2,1,1,0,1,
0uk,42,L,false,288,2,1,1,0,0,
0uk,43,L,false,14,1,1,0,1,1,
0uk,44,L,false,132,2,0,0,0,1,
0uk,45,L,true,498,2,0,1,1,1,
0uk,46,L,false,490,1,1,1,1,1,
0uk,47,L,false,642,1,0,1,1,1,
0uk,48,L,true,3029,2,1,0,1,0,
0uk,49,L,false,2007,2,1,1,1,1,
0uk,50,L,true,1066,1,0,0,1,1,
0uk,51,L,true,474,2,0,0,1,0,
0uk,52,L,true,491,1,1,1,1,1,
0uk,53,L,true,171,2,1,1,1,0,
0uk,54,L,false,85,1,1,0,0,1,
0uk,55,L,true,729,1,1,1,1,1,
0uk,56,L,false,1513,2,0,0,1,0,
0uk,57,L,false,348,1,1,0,1,1,
0uk,58,L,false,367,2,0,0,1,1,
0uk,59,L,true,231,2,0,1,1,0,
0uk,60,L,false,143,1,1,0,1,1,
0uk,61,L,false,192,2,1,1,1,1,
0uk,62,L,true,113,2,0,1,1,1,
0uk,63,L,false,397,2,1,1,1,1,
0uk,64,L,true,452,2,1,0,0,1,
0uk,65,L,true,473,2,1,1,1,1,
0uk,66,L,true,519,2,1,1,0,1,
0uk,67,L,false,232,2,1,0,1,1,
0uk,68,L,false,232,1,0,1,0,0,
0uk,69,L,true,152,1,0,0,1,1,
0uk,70,L,true,89,1,1,1,0,1,
0uk,71,L,false,405,2,1,0,1,1,
0uk,72,L,true,565,2,1,1,1,1,
0uk,73,L,true,1518,2,1,0,1,0,
0uk,74,L,false,960,1,0,1,1,1,
0uk,75,L,true,1344,1,0,0,1,0,
0uk,76,L,false,1896,1,1,0,1,0,
0uk,77,L,true,704,1,0,1,0,1,
0uk,78,L,true,181,1,0,1,1,0,
0uk,79,L,false,351,2,0,1,1,1,
0uk,80,L,false,441,1,0,1,1,0,
0uk,81,L,true,127,1,1,0,1,1,
0uk,82,L,true,188,1,1,1,1,1,
0uk,83,L,false,152,2,0,0,1,1,
0uk,84,L,true,200,2,1,1,0,1,
0uk,85,L,false,257,1,1,1,1,1,
0uk,86,L,false,52,2,0,0,1,1,
0uk,87,L,true,8,2,0,0,0,0,
0uk,88,L,true,1252,1,0,1,1,1,
0uk,89,L,true,124,1,0,1,1,0,
0uk,90,L,true,466,1,1,0,1,1,
brk,brk,brk,brk,brk,brk,brk,brk,brk,brk,
0uk,91,L,false,2394,2,1,1,1,1,
0uk,92,L,false,0,1,0,1,1,1,
0uk,93,L,false,361,2,0,1,0,1,
0uk,94,L,true,216,2,1,1,1,1,
0uk,95,L,false,384,2,0,1,0,1,
0uk,96,L,true,351,2,1,0,1,0,
0uk,97,L,false,15,2,0,0,0,1,
0uk,98,L,false,280,1,0,1,0,1,
0uk,99,L,false,199,2,1,1,1,1,
0uk,100,L,true,70,2,1,0,1,0,
0uk,101,L,true,433,2,1,0,1,0,
0uk,102,L,false,250,1,0,0,1,1,
0uk,103,L,false,288,2,0,0,1,1,
0uk,104,L,false,199,2,1,1,1,1,
0uk,105,L,true,415,1,0,1,0,0,
0uk,106,L,true,161,1,0,1,1,1,
0uk,107,L,false,292,1,0,1,1,1,
0uk,108,L,false,329,1,0,0,0,1,
0uk,109,L,false,284,2,1,0,1,1,
0uk,110,L,true,793,2,0,1,1,0,
0uk,111,L,true,608,2,1,0,1,1,
0uk,112,L,false,233,1,1,0,1,0,
0uk,113,L,false,648,2,0,1,0,0,
0uk,114,L,true,144,2,1,0,1,0,
0uk,115,L,false,52,1,1,1,0,1,
0uk,116,L,false,397,2,1,1,0,1,
0uk,117,L,true,106,2,0,0,0,1,
0uk,118,L,true,442,2,0,1,0,1,
0uk,119,L,false,125,1,1,1,1,1,
0uk,120,L,false,545,2,0,1,0,1,
0uk,121,L,true,442,2,1,1,1,0,
0uk,122,L,false,24,1,1,1,1,0,
0uk,123,L,false,423,2,0,0,0,0,
0uk,124,L,false,208,1,0,1,0,0,
0uk,125,L,true,533,1,1,1,1,1,
0uk,126,L,false,433,2,0,0,1,1,
0uk,127,L,false,350,1,0,0,1,0,
0uk,128,L,false,359,2,1,0,1,1,
0uk,129,L,true,33,1,1,0,1,1,
0uk,130,L,true,153,2,0,1,0,0,
0uk,131,L,true,993,2,1,1,1,1,
0uk,132,L,false,690,2,1,1,1,0,
0uk,133,L,false,110,1,1,0,0,0,
0uk,134,L,true,33,1,1,0,1,1,
0uk,135,L,true,1552,1,0,0,1,0,
0uk,136,L,false,376,2,1,0,1,1,
0uk,137,L,true,473,2,1,1,1,1,
0uk,138,L,false,234,2,1,1,1,1,
0uk,139,L,true,373,2,0,0,0,1,
0uk,140,L,false,94,2,1,0,1,0,
0uk,141,L,false,49,1,1,1,1,1,
0uk,142,L,true,336,1,0,1,0,1,
0uk,143,L,true,2031,1,1,0,1,0,
0uk,144,L,false,799,1,0,1,1,0,
0uk,145,L,false,605,2,0,1,0,1,
0uk,146,L,false,791,1,0,0,1,1,
0uk,147,L,false,198,2,1,0,1,1,
0uk,148,L,false,436,1,0,0,0,1,
0uk,149,L,true,402,2,1,0,1,1,
0uk,150,L,true,409,2,1,0,1,1,
0uk,151,L,true,154,2,1,0,1,1,
0uk,152,L,true,164,2,1,1,1,1,
0uk,153,L,false,277,2,1,1,1,1,
0uk,154,L,false,289,1,1,1,1,1,
0uk,155,L,true,282,1,0,0,0,1,
0uk,156,L,true,139,2,0,1,1,1,
0uk,157,L,true,135,2,1,1,0,1,
0uk,158,L,true,433,2,1,0,0,1,
0uk,159,L,false,567,1,0,1,1,1,
0uk,160,L,false,200,2,0,0,0,0,
0uk,161,L,true,136,2,1,0,1,1,
0uk,162,L,true,171,2,1,0,1,1,
0uk,163,L,false,411,1,0,1,0,1,
0uk,164,L,false,121,2,0,0,1,1,
0uk,165,L,false,416,1,0,0,0,1,
0uk,166,L,true,277,1,1,1,1,1,
0uk,167,L,false,471,2,1,0,1,1,
0uk,168,L,true,125,2,0,0,1,1,
0uk,169,L,false,287,2,0,1,0,1,
0uk,170,L,false,348,1,0,1,1,1,
0uk,171,L,false,391,2,0,1,1,1,
0uk,172,L,false,1058,1,1,1,1,1,
0uk,173,L,true,84,1,1,1,1,1,
0uk,174,L,false,432,2,1,0,1,0,
0uk,175,L,true,398,2,1,1,0,1,
0uk,176,L,false,366,1,1,0,1,0,
0uk,177,L,false,119,2,0,0,0,1,
0uk,178,L,false,199,1,1,0,1,1,
0uk,179,L,true,71,1,0,0,1,1,
0uk,180,L,true,1512,1,1,1,1,1,
brk,brk,brk,brk,brk,brk,brk,brk,brk,brk,
0uk,181,L,false,4025,2,0,0,0,0,
0uk,182,L,false,396,1,1,0,1,1,
0uk,183,L,true,266,2,0,1,0,1,
0uk,184,L,false,615,1,1,1,1,1,
0uk,185,L,false,671,2,0,0,1,1,
0uk,186,L,true,129,2,0,1,1,0,
0uk,187,L,true,542,2,0,1,0,1,
0uk,188,L,false,248,2,0,1,1,1,
0uk,189,L,true,418,2,0,1,1,1,
0uk,190,L,false,1244,1,1,1,0,0,
0uk,191,L,true,139,1,1,1,0,0,
0uk,192,L,true,151,1,1,0,1,1,
0uk,193,L,true,22,1,1,1,0,1,
0uk,194,L,false,124,2,0,0,1,1,
0uk,195,L,true,128,2,0,1,0,1,
0uk,196,L,true,873,2,1,1,1,1,
0uk,197,L,true,351,2,0,1,1,1,
0uk,198,L,true,400,2,1,1,1,0,
0uk,199,L,true,737,1,1,0,0,0,
0uk,200,L,false,241,2,0,0,0,1,
0uk,201,L,true,238,2,1,0,1,1,
0uk,202,L,false,16,1,0,0,1,1,
0uk,203,L,false,842,1,0,1,1,1,
0uk,204,L,false,365,2,1,1,1,1,
0uk,205,L,false,573,1,0,1,1,1,
0uk,206,L,false,143,2,0,1,1,1,
0uk,207,L,false,82,2,1,0,1,0,
0uk,208,L,true,108,1,0,1,1,1,
0uk,209,L,true,337,2,0,0,1,1,
0uk,210,L,true,173,2,0,0,0,1,
0uk,211,L,false,256,1,1,0,0,0,
0uk,212,L,false,312,2,1,1,1,0,
0uk,213,L,false,269,1,0,0,1,1,
0uk,214,L,false,12,2,1,0,1,1,
0uk,215,L,true,265,2,1,1,1,1,
0uk,216,L,true,143,2,1,1,1,1,
0uk,217,L,false,497,2,0,1,0,1,
0uk,218,L,true,405,2,0,0,1,1,
0uk,219,L,false,40,1,1,1,0,1,
0uk,220,L,true,141,1,1,0,1,1,
0uk,221,L,false,246,2,1,0,1,1,
0uk,222,L,false,337,1,0,1,0,1,
0uk,223,L,false,166,2,1,1,0,1,
0uk,224,L,false,168,1,1,1,1,0,
0uk,225,L,true,105,1,0,0,1,1,
0uk,226,L,false,474,1,1,1,1,1,
0uk,227,L,true,25,1,1,1,0,0,
0uk,228,L,false,159,2,0,0,0,0,
0uk,229,L,true,385,2,0,0,1,1,
0uk,230,L,false,72,1,0,1,1,0,
0uk,231,L,true,9,1,1,0,1,0,
0uk,232,L,false,183,2,0,0,0,1,
0uk,233,L,true,144,2,0,1,1,1,
0uk,234,L,false,36,1,0,0,1,1,
0uk,235,L,true,408,2,1,1,0,1,
0uk,236,L,true,258,1,0,1,1,1,
0uk,237,L,true,572,1,0,0,1,0,
0uk,238,L,true,463,1,0,1,0,1,
0uk,239,L,true,200,1,1,0,1,0,
0uk,240,L,false,223,2,1,0,1,1,
0uk,241,L,true,49,2,0,1,1,1,
0uk,242,L,false,129,2,0,1,1,1,
0uk,243,L,true,480,2,0,0,0,1,
0uk,244,L,false,466,1,1,0,1,1,
0uk,245,L,false,32,2,1,0,1,1,
0uk,246,L,true,275,2,0,0,1,0,
0uk,247,L,true,394,2,0,1,1,0,
0uk,248,L,false,81,2,0,0,0,1,
0uk,249,L,false,94,1,1,1,1,1,
0uk,250,L,true,339,1,0,1,0,0,
0uk,251,L,false,20,2,1,1,1,1,
0uk,252,L,true,288,2,0,1,1,1,
0uk,253,L,true,374,2,1,1,1,0,
0uk,254,L,true,232,2,1,1,1,0,
0uk,255,L,true,287,2,1,1,1,1,
0uk,256,L,true,536,2,1,0,1,1,
0uk,257,L,true,191,1,1,0,1,1,
0uk,258,L,true,188,1,1,1,1,0,
0uk,259,L,false,542,2,0,0,0,1,
0uk,260,L,false,128,1,0,1,0,1,
0uk,261,L,false,293,1,1,1,1,0,
0uk,262,L,true,285,1,1,0,1,1,
0uk,263,L,true,79,1,1,1,1,1,
0uk,264,L,false,543,2,1,1,1,1,
0uk,265,L,true,345,2,1,0,1,1,
0uk,266,L,true,1113,1,1,1,1,0,
0uk,267,L,false,294,1,1,0,1,1,
0uk,268,L,true,204,1,0,1,0,1,
0uk,269,L,true,505,2,0,1,1,1,
0uk,270,L,true,374,2,0,1,0,0,
brk,brk,brk,brk,brk,brk,brk,brk,brk,brk,
0uk,271,L,false,4305,1,0,0,0,0,
0uk,272,L,true,69,1,0,1,1,1,
0uk,273,L,true,351,1,1,1,1,1,
0uk,274,L,false,43,2,0,0,0,1,
0uk,275,L,true,31,2,0,1,1,0,
0uk,276,L,true,354,1,0,0,1,1,
0uk,277,L,false,353,1,1,1,1,0,
0uk,278,L,false,458,2,1,1,1,1,
0uk,279,L,false,931,1,0,1,1,0,
0uk,280,L,false,515,2,0,1,1,1,
0uk,281,L,true,207,2,0,0,0,1,
0uk,282,L,true,257,2,0,1,1,1,
0uk,283,L,false,317,1,1,0,0,1,
0uk,284,L,true,176,1,1,1,1,1,
0uk,285,L,true,31,1,1,1,1,0,
0uk,286,L,false,81,2,1,0,1,1,
0uk,287,L,false,110,1,1,1,1,1,
0uk,288,L,true,361,1,0,1,0,1,
0uk,289,L,true,240,1,1,1,1,1,
0uk,290,L,false,375,2,0,0,0,0,
0uk,291,L,false,138,1,0,1,0,1,
0uk,292,L,false,355,2,1,0,0,0,
0uk,293,L,true,358,2,1,1,1,1,
0uk,294,L,false,422,1,0,1,1,1,
0uk,295,L,false,486,2,1,0,1,1,
0uk,296,L,true,185,2,1,1,1,0,
0uk,297,L,false,20,1,1,1,1,1,
0uk,298,L,true,126,1,0,1,0,0,
0uk,299,L,false,248,2,1,0,1,1,
0uk,300,L,true,346,2,1,1,1,0,
0uk,301,L,true,355,1,1,0,1,0,
0uk,302,L,false,309,2,0,1,1,1,
0uk,303,L,true,221,2,1,1,0,1,
0uk,304,L,false,677,1,0,0,1,0,
0uk,305,L,true,312,1,0,0,0,1,
0uk,306,L,false,98,2,0,0,1,1,
0uk,307,L,true,274,1,1,0,1,1,
0uk,308,L,false,292,2,1,0,1,0,
0uk,309,L,true,164,2,0,1,0,0,
0uk,310,L,false,125,1,1,1,0,1,
0uk,311,L,true,122,1,0,0,0,1,
0uk,312,L,false,539,2,1,1,0,1,
0uk,313,L,true,325,2,0,1,1,0,
0uk,314,L,false,192,1,0,0,0,1,
0uk,315,L,true,121,1,1,0,0,1,
0uk,316,L,false,149,2,0,1,1,1,
0uk,317,L,true,397,2,0,0,1,0,
0uk,318,L,true,248,2,0,1,0,1,
0uk,319,L,false,483,2,1,1,1,1,
0uk,320,L,true,343,2,0,1,0,1,
0uk,321,L,true,480,2,0,1,0,0,
0uk,322,L,false,863,1,0,1,1,1,
0uk,323,L,true,320,1,0,0,1,1,
0uk,324,L,true,287,1,1,1,1,1,
0uk,325,L,false,212,2,0,1,1,0,
0uk,326,L,false,291,1,1,1,0,0,
0uk,327,L,false,229,2,1,1,1,1,
0uk,328,L,false,211,1,0,1,0,1,
0uk,329,L,true,222,1,0,0,0,1,
0uk,330,L,false,56,2,1,1,1,0,
0uk,331,L,true,39,2,0,1,1,1,
0uk,332,L,true,248,2,1,1,0,0,
0uk,333,L,true,230,1,1,1,1,1,
0uk,334,L,true,393,2,0,0,1,0,
0uk,335,L,false,291,2,0,1,1,1,
0uk,336,L,false,128,1,0,1,1,1,
0uk,337,L,false,54,2,0,1,1,0,
0uk,338,L,false,193,1,0,1,0,1,
0uk,339,L,false,485,1,0,0,0,0,
0uk,340,L,true,534,2,1,0,1,0,
0uk,341,L,true,457,2,1,1,1,1,
0uk,342,L,false,276,2,0,0,1,1,
0uk,343,L,false,367,1,0,1,1,1,
0uk,344,L,false,118,1,1,0,1,1,
0uk,345,L,false,333,1,1,1,1,1,
0uk,346,L,true,31,2,0,1,1,1,
0uk,347,L,false,406,2,1,0,1,1,
0uk,348,L,false,119,1,1,0,1,1,
0uk,349,L,true,139,1,1,0,0,0,
0uk,350,L,false,387,1,1,0,1,1,
0uk,351,L,false,103,2,0,0,1,1,
0uk,352,L,true,214,1,0,0,1,0,
0uk,353,L,false,319,1,1,0,0,1,
0uk,354,L,true,36,1,1,0,1,0,
0uk,355,L,true,53,1,1,0,1,1,
0uk,356,L,true,277,1,1,1,0,0,
0uk,357,L,true,270,1,1,1,0,1,
0uk,358,L,false,284,2,1,0,1,0,
0uk,359,L,true,107,2,0,1,1,1,
0uk,360,L,false,80,2,0,0,1,1,
brk,brk,brk,brk,brk,brk,brk,brk,brk,brk,
0uk,361,L,false,903,2,0,1,1,1,
0uk,362,L,true,158,2,1,1,1,1,
0uk,363,L,false,12,2,0,0,1,0,
0uk,364,L,true,339,2,0,0,0,1,
0uk,365,L,false,90,2,1,1,1,1,
0uk,366,L,true,416,1,1,0,1,1,
0uk,367,L,true,760,2,0,1,0,1,
0uk,368,L,false,327,1,0,1,0,1,
0uk,369,L,false,293,2,0,1,0,1,
0uk,370,L,false,290,2,0,1,0,1,
0uk,371,L,false,131,1,1,1,0,1,
0uk,372,L,true,285,1,1,1,1,0,
0uk,373,L,true,94,1,1,1,1,0,
0uk,374,L,false,48,2,0,1,1,1,
0uk,375,L,false,588,1,0,0,0,1,
0uk,376,L,true,360,2,0,1,1,0,
0uk,377,L,true,1093,1,1,0,1,0,
0uk,378,L,false,425,1,0,1,1,1,
0uk,379,L,true,514,2,0,1,0,1,
0uk,380,L,false,164,1,0,1,1,0,
0uk,381,L,false,418,2,0,0,0,1,
0uk,382,L,false,72,1,1,1,1,1,
0uk,383,L,true,175,2,0,1,1,1,
0uk,384,L,false,279,2,0,1,0,1,
0uk,385,L,true,37,2,1,0,1,1,
0uk,386,L,false,120,1,1,0,1,1,
0uk,387,L,false,73,1,0,1,0,1,
0uk,388,L,false,1198,2,1,1,1,0,
0uk,389,L,false,483,2,0,1,1,1,
0uk,390,L,true,303,2,0,1,1,1,
0uk,391,L,true,1398,1,1,0,0,1,
0uk,392,L,true,823,1,1,0,1,0,
0uk,393,L,true,1657,1,1,0,1,1,
0uk,394,L,false,2300,2,1,0,1,0,
0uk,395,L,false,52,1,0,1,1,1,
0uk,396,L,false,1119,2,0,1,1,0,
0uk,397,L,false,1534,1,1,0,0,1,
0uk,398,L,false,120,2,0,1,1,1,
0uk,399,L,true,134,1,1,0,1,1,
0uk,400,L,false,347,1,0,1,0,0,
0uk,401,L,true,134,1,1,1,0,0,
0uk,402,L,true,439,1,0,1,0,1,
0uk,403,L,true,200,1,0,1,1,1,
0uk,404,L,true,184,1,1,0,1,1,
0uk,405,L,true,182,2,0,1,1,1,
0uk,406,L,false,18,1,0,1,1,1,
0uk,407,L,true,687,1,0,0,0,0,
0uk,408,L,false,284,1,0,1,1,1,
0uk,409,L,false,328,2,1,0,1,0,
0uk,410,L,false,126,1,0,1,0,1,
0uk,411,L,false,301,2,0,0,1,0,
0uk,412,L,false,393,2,1,1,1,0,
0uk,413,L,false,140,1,0,0,1,1,
0uk,414,L,false,369,2,1,0,0,1,
0uk,415,L,false,453,1,0,0,1,0,
0uk,416,L,false,45,2,0,0,1,1,
0uk,417,L,false,105,1,1,1,1,1,
0uk,418,L,false,267,2,0,1,1,0,
0uk,419,L,false,433,1,0,1,1,1,
0uk,420,L,true,270,1,1,1,1,0,
0uk,421,L,false,301,2,1,1,0,1,
0uk,422,L,true,459,2,1,0,1,1,
0uk,423,L,true,7,1,1,1,1,1,
0uk,424,L,false,501,2,0,0,1,0,
0uk,425,L,true,624,1,0,1,0,1,
0uk,426,L,false,90,1,1,1,1,1,
0uk,427,L,true,59,1,1,0,1,1,
0uk,428,L,true,240,2,0,1,1,1,
0uk,429,L,true,903,2,0,0,1,1,
0uk,430,L,true,896,1,1,1,1,1,
0uk,431,L,false,318,2,1,0,1,1,
0uk,432,L,true,86,2,0,1,1,1,
0uk,433,L,true,237,1,0,0,0,0,
0uk,434,L,false,35,2,0,0,1,1,
0uk,435,L,false,462,1,1,0,1,1,
0uk,436,L,true,31,2,1,1,1,1,
0uk,437,L,true,350,1,1,1,1,0,
0uk,438,L,true,31,1,1,1,0,1,
0uk,439,L,true,206,2,0,1,1,1,
0uk,440,L,true,40,1,0,0,1,1,
0uk,441,L,false,85,2,1,1,1,1,
0uk,442,L,true,326,2,0,0,0,0,
0uk,443,L,false,364,1,1,1,0,1,
0uk,444,L,true,664,1,0,1,0,1,
0uk,445,L,true,1315,2,1,1,0,0,
0uk,446,L,true,276,1,0,1,1,1,
0uk,447,L,true,460,1,1,1,1,1,
0uk,448,L,false,575,1,1,0,1,1,
0uk,449,L,false,486,2,0,0,1,1,
0uk,450,L,true,167,2,1,1,1,1,
subID,trialNum,cntBalance,correct,rt,winner,p1conf,p2conf,p1rslt,p2rslt,
aya,1,L,true,2311,2,0,1,0,1,
aya,2,L,false,2132,1,1,0,0,1,
aya,3,L,false,1577,1,1,1,0,0,
aya,4,L,true,1491,1,1,0,1,1,
aya,5,L,false,2575,2,1,0,0,1,
aya,6,L,true,2260,2,1,1,1,1,
aya,7,L,true,2326,2,0,0,1,1,
aya,8,L,true,1125,1,1,1,1,1,
aya,9,L,false,1721,2,1,1,1,0,
aya,10,L,true,1598,1,1,0,1,0,
aya,11,L,true,1050,1,1,1,1,1,
aya,12,L,true,1467,2,0,1,1,1,
aya,13,L,true,1152,1,0,0,0,1,
aya,14,L,true,919,1,1,1,1,1,
aya,15,L,true,1297,2,0,0,1,1,
aya,16,L,true,1005,1,1,1,1,1,
aya,17,L,true,813,1,1,1,1,1,
aya,18,L,true,871,2,0,1,1,1,
aya,19,L,true,878,1,0,0,0,1,
aya,20,L,true,1006,2,1,0,1,1,
aya,21,L,false,1060,1,0,0,0,1,
aya,22,L,true,1016,1,1,1,1,1,
aya,23,L,true,792,1,1,1,1,1,
aya,24,L,false,788,2,1,1,1,0,
aya,25,L,true,1176,1,1,1,1,1,
aya,26,L,true,812,2,0,0,1,1,
aya,27,L,false,335,2,1,0,0,1,
aya,28,L,false,1015,2,1,1,0,1,
aya,29,L,true,899,1,0,0,1,1,
aya,30,L,true,831,2,1,0,0,1,
aya,31,L,false,1325,2,1,0,1,1,
aya,32,L,false,1904,1,0,0,1,1,
aya,33,L,true,911,1,0,0,1,1,
aya,34,L,true,1159,2,1,1,1,0,
aya,35,L,true,630,2,0,0,0,1,
aya,36,L,false,685,2,1,1,0,1,
aya,37,L,true,309,2,0,1,0,1,
aya,38,L,true,793,2,1,0,1,1,
aya,39,L,true,2199,2,0,0,0,1,
aya,40,L,true,1166,2,0,1,1,1,
aya,41,L,false,1166,1,0,1,1,0,
aya,42,L,true,989,1,1,0,0,1,
aya,43,L,true,658,1,1,1,1,1,
aya,44,L,true,755,2,0,1,0,1,
aya,45,L,true,890,1,0,1,1,0,
aya,46,L,false,944,1,1,1,1,0,
aya,47,L,true,371,1,1,0,1,1,
aya,48,L,false,72,1,1,0,1,0,
aya,49,L,true,1007,1,1,1,0,1,
aya,50,L,true,1183,2,1,0,1,0,
aya,51,L,true,1183,1,1,0,1,0,
aya,52,L,false,1004,1,1,1,0,1,
aya,53,L,true,1129,1,0,0,1,1,
aya,54,L,false,2069,1,1,0,1,1,
aya,55,L,true,1048,2,1,1,1,1,
aya,56,L,false,1447,1,0,1,1,1,
aya,57,L,false,308,2,0,0,1,1,
aya,58,L,false,742,2,0,0,0,0,
aya,59,L,false,1039,1,1,0,1,0,
aya,60,L,false,1211,2,1,0,0,1,
aya,61,L,false,616,2,0,0,0,0,
aya,62,L,false,1047,2,0,0,1,1,
aya,63,L,true,958,1,0,0,1,1,
aya,64,L,true,977,1,1,1,1,1,
aya,65,L,true,751,1,0,0,1,1,
aya,66,L,true,775,1,1,1,1,1,
aya,67,L,true,1302,1,1,0,1,0,
aya,68,L,true,908,2,0,1,0,1,
aya,69,L,false,950,2,0,1,0,0,
aya,70,L,false,2214,1,0,0,0,1,
aya,71,L,true,710,1,0,1,1,1,
aya,72,L,true,767,1,0,0,0,1,
aya,73,L,true,791,2,0,0,1,1,
aya,74,L,true,858,1,1,1,1,0,
aya,75,L,false,1123,1,1,1,1,1,
aya,76,L,true,821,2,0,1,1,0,
aya,77,L,true,950,2,1,1,1,0,
aya,78,L,true,869,1,1,0,1,1,
aya,79,L,false,751,2,0,0,0,0,
aya,80,L,true,2334,2,0,1,0,1,
aya,81,L,true,1698,1,0,0,1,1,
aya,82,L,true,2918,1,0,0,0,1,
aya,83,L,true,1333,1,0,0,1,1,
aya,84,L,false,2217,2,1,0,1,0,
aya,85,L,true,1338,2,0,0,1,1,
aya,86,L,true,1670,1,1,0,1,1,
aya,87,L,true,2490,1,0,0,1,0,
aya,88,L,true,2142,2,1,0,1,1,
aya,89,L,true,1156,1,1,0,1,1,
aya,90,L,true,1190,1,1,1,1,1,
aya,91,L,true,987,1,1,0,1,1,
aya,92,L,true,1167,2,1,1,1,1,
aya,93,L,true,791,1,1,0,1,1,
aya,94,L,true,2955,1,0,0,1,0,
aya,95,L,true,1768,2,0,0,1,0,
aya,96,L,true,1415,2,0,0,1,1,
aya,97,L,true,1932,1,0,0,1,0,
aya,98,L,false,1710,1,1,1,1,0,
aya,99,L,false,1344,2,0,0,0,1,
aya,100,L,true,1182,1,1,1,1,1,
brk,brk,brk,brk,brk,brk,brk,brk,brk,brk,
aya,101,L,false,2862,2,0,1,0,0,
aya,102,L,true,4442,1,1,1,1,0,
aya,103,L,true,2236,1,1,0,1,0,
aya,104,L,true,11013,1,0,0,1,1,
aya,105,L,true,1517,2,1,0,1,1,
aya,106,L,false,605,2,1,0,0,0,
aya,107,L,false,2409,1,0,1,0,1,
aya,108,L,true,948,2,1,1,1,0,
aya,109,L,true,2003,2,0,0,1,0,
aya,110,L,true,1399,2,1,1,1,1,
aya,111,L,true,882,1,1,0,1,1,
aya,112,L,false,1387,1,1,0,0,0,
aya,113,L,true,1472,2,0,1,1,1,
aya,114,L,true,1686,1,0,1,1,0,
aya,115,L,false,1256,1,0,0,0,1,
aya,116,L,true,1066,2,0,0,1,1,
aya,117,L,true,1138,1,1,0,1,1,
aya,118,L,true,869,1,1,1,1,0,
aya,119,L,true,558,2,1,1,1,1,
aya,120,L,true,697,1,1,1,1,0,
aya,121,L,true,668,1,1,0,1,0,
aya,122,L,true,616,1,1,0,1,0,
aya,123,L,true,639,2,1,0,1,0,
aya,124,L,true,642,1,1,0,1,1,
aya,125,L,true,939,2,1,0,1,1,
aya,126,L,true,519,1,1,1,1,1,
aya,127,L,true,679,1,1,1,1,1,
aya,128,L,true,592,2,1,1,1,1,
aya,129,L,true,515,1,0,0,1,0,
aya,130,L,true,638,2,0,1,1,0,
aya,131,L,false,608,1,0,1,0,1,
aya,132,L,false,732,1,1,1,0,0,
aya,133,L,false,621,1,1,1,0,1,
aya,134,L,true,518,2,1,0,1,1,
aya,135,L,false,1426,2,1,1,0,1,
aya,136,L,true,1300,1,1,0,1,1,
aya,137,L,false,1483,1,0,1,0,0,
aya,138,L,true,626,1,1,0,1,1,
aya,139,L,true,544,2,1,1,1,1,
aya,140,L,false,496,2,0,0,0,1,
aya,141,L,true,703,2,0,1,1,1,
aya,142,L,false,1017,1,1,0,0,1,
aya,143,L,true,574,1,1,1,1,1,
aya,144,L,true,724,1,1,1,1,1,
aya,145,L,false,599,2,0,1,0,0,
aya,146,L,false,650,2,0,0,0,1,
aya,147,L,true,616,2,0,0,1,0,
aya,148,L,false,703,1,0,1,0,1,
aya,149,L,true,88,1,1,0,1,1,
aya,150,L,true,3761,2,1,1,1,0,
aya,151,L,false,1060,1,0,1,1,0,
aya,152,L,true,1175,2,0,0,1,1,
aya,153,L,true,2440,2,1,0,1,1,
aya,154,L,true,2685,1,1,0,1,0,
aya,155,L,true,712,2,1,0,1,0,
aya,156,L,true,1265,1,0,0,1,1,
aya,157,L,false,1901,1,0,0,0,0,
aya,158,L,false,1192,1,1,0,0,1,
aya,159,L,true,920,1,1,1,1,1,
aya,160,L,true,784,2,1,1,0,1,
aya,161,L,true,706,1,1,1,1,1,
aya,162,L,false,1157,2,0,1,0,1,
aya,163,L,false,718,2,1,0,0,1,
aya,164,L,false,696,1,1,0,1,0,
aya,165,L,true,764,1,1,1,1,1,
aya,166,L,true,50,1,0,1,0,0,
aya,167,L,false,908,1,1,0,0,0,
aya,168,L,true,967,1,0,0,1,1,
aya,169,L,false,1999,2,1,0,1,1,
aya,170,L,false,1084,2,1,1,1,0,
aya,171,L,true,905,2,1,1,1,1,
aya,172,L,true,934,2,0,0,1,1,
aya,173,L,true,1012,2,1,0,1,1,
aya,174,L,true,1448,2,0,1,0,1,
aya,175,L,false,729,2,0,0,0,1,
aya,176,L,false,1200,1,0,0,0,1,
aya,177,L,false,608,1,0,1,0,0,
aya,178,L,false,703,2,0,1,0,0,
aya,179,L,true,956,1,1,0,1,0,
aya,180,L,true,659,1,1,1,1,1,
aya,181,L,true,1008,1,1,0,1,1,
aya,182,L,true,1303,1,1,1,1,0,
aya,183,L,true,565,1,1,0,1,1,
aya,184,L,false,795,2,0,1,0,0,
aya,185,L,false,60,2,0,1,0,0,
aya,186,L,true,1001,2,1,0,1,1,
aya,187,L,false,863,1,0,0,0,1,
aya,188,L,true,962,2,1,1,1,1,
aya,189,L,true,555,2,1,1,1,1,
aya,190,L,true,670,1,0,0,1,1,
aya,191,L,true,676,1,1,0,1,1,
aya,192,L,false,675,2,0,0,1,1,
aya,193,L,true,722,2,0,0,1,1,
aya,194,L,true,646,1,1,0,1,1,
aya,195,L,true,632,1,0,1,1,1,
aya,196,L,false,1225,2,0,0,0,1,
aya,197,L,true,625,1,0,1,1,1,
aya,198,L,true,685,1,1,0,1,1,
aya,199,L,true,1120,2,0,1,1,1,
aya,200,L,true,913,1,1,1,1,0,
brk,brk,brk,brk,brk,brk,brk,brk,brk,brk,
aya,201,L,true,1482,2,1,0,1,1,
aya,202,L,false,1080,1,0,0,1,0,
aya,203,L,true,545,2,0,1,1,1,
aya,204,L,false,757,1,0,0,0,1,
aya,205,L,true,758,2,1,1,1,1,
aya,206,L,true,702,1,0,0,1,1,
aya,207,L,true,1248,2,0,1,0,1,
aya,208,L,false,5888,2,0,0,0,0,
aya,209,L,true,3029,2,1,0,1,1,
aya,210,L,true,662,1,0,1,1,1,
aya,211,L,true,942,1,0,0,1,1,
aya,212,L,false,767,1,0,1,0,1,
aya,213,L,true,744,2,0,0,1,1,
aya,214,L,true,1161,2,1,1,1,0,
aya,215,L,true,593,2,0,1,1,1,
aya,216,L,true,560,2,1,1,1,0,
aya,217,L,true,731,2,0,1,1,1,
aya,218,L,true,1015,2,0,1,1,1,
aya,219,L,true,1235,1,1,1,1,1,
aya,220,L,true,482,2,1,0,1,0,
aya,221,L,true,741,2,0,0,1,1,
aya,222,L,false,664,1,0,1,0,0,
aya,223,L,true,951,2,0,0,1,1,
aya,224,L,false,1013,1,1,1,0,1,
aya,225,L,true,1352,1,0,0,1,1,
aya,226,L,true,1617,1,0,1,0,1,
aya,227,L,false,1136,2,0,1,0,1,
aya,228,L,true,584,2,0,1,1,1,
aya,229,L,false,487,2,1,0,0,0,
aya,230,L,false,95,1,0,1,1,0,
aya,231,L,true,260,2,1,0,1,1,
aya,232,L,true,472,1,1,0,1,1,
aya,233,L,false,430,2,1,0,1,1,
aya,234,L,true,889,2,1,1,1,0,
aya,235,L,false,696,2,1,1,0,1,
aya,236,L,false,1056,1,0,1,1,0,
aya,237,L,true,692,2,1,0,1,1,
aya,238,L,true,571,2,0,0,1,0,
aya,239,L,true,680,1,1,1,1,1,
aya,240,L,true,536,2,0,1,1,1,
aya,241,L,true,584,1,1,0,1,1,
aya,242,L,false,608,1,1,0,0,1,
aya,243,L,true,648,1,1,0,1,1,
aya,244,L,true,448,2,1,1,1,0,
aya,245,L,true,1046,1,1,1,1,1,
aya,246,L,true,600,2,0,0,1,1,
aya,247,L,true,773,1,0,1,1,1,
aya,248,L,false,756,2,0,1,0,1,
aya,249,L,true,1412,2,0,0,1,1,
aya,250,L,true,777,2,1,0,1,1,
aya,251,L,true,1570,2,0,1,1,1,
aya,252,L,false,1624,1,1,1,0,1,
aya,253,L,true,1719,2,0,0,1,1,
aya,254,L,true,2168,1,1,1,0,1,
aya,255,L,true,1032,1,1,0,1,1,
aya,256,L,true,1685,2,0,1,1,1,
aya,257,L,true,1097,1,1,1,1,1,
aya,258,L,true,1263,2,0,0,1,1,
aya,259,L,true,2168,1,1,1,1,0,
aya,260,L,true,1095,2,0,0,1,1,
aya,261,L,false,1600,2,1,0,1,0,
aya,262,L,true,1675,1,1,1,1,1,
aya,263,L,false,3732,1,0,0,0,1,
aya,264,L,true,1502,2,0,1,0,1,
aya,265,L,true,1308,1,0,1,0,1,
aya,266,L,false,858,2,0,1,1,0,
aya,267,L,false,940,2,0,1,0,0,
aya,268,L,true,966,1,1,1,1,1,
aya,269,L,true,1334,2,0,0,1,1,
aya,270,L,true,1688,2,1,0,1,0,
aya,271,L,false,2433,2,0,1,1,0,
aya,272,L,true,2144,1,0,0,1,0,
aya,273,L,false,2061,1,0,0,0,1,
aya,274,L,true,689,1,0,0,1,1,
aya,275,L,true,1621,1,1,0,1,1,
aya,276,L,true,848,2,0,0,0,1,
aya,277,L,false,1023,1,0,1,1,0,
aya,278,L,true,1135,2,0,1,0,1,
aya,279,L,false,1328,2,1,1,1,0,
aya,280,L,false,332,2,1,1,1,1,
aya,281,L,true,983,2,1,1,1,1,
aya,282,L,true,675,2,1,0,1,1,
aya,283,L,false,696,2,0,1,0,0,
aya,284,L,true,1248,2,0,1,1,0,
aya,285,L,false,745,2,0,1,0,0,
aya,286,L,true,1328,2,1,0,1,0,
aya,287,L,false,863,1,1,1,1,0,
aya,288,L,true,600,2,0,1,1,0,
aya,289,L,true,665,2,1,1,1,1,
aya,290,L,true,868,2,0,1,0,1,
aya,291,L,false,888,1,1,0,1,0,
aya,292,L,true,724,1,1,1,1,1,
aya,293,L,false,1182,1,0,1,0,1,
aya,294,L,true,503,2,0,1,1,0,
aya,295,L,false,756,1,1,0,0,1,
aya,296,L,true,427,1,1,0,1,0,
aya,297,L,false,1073,2,0,0,0,1,
aya,298,L,false,845,1,0,0,1,0,
aya,299,L,true,717,1,0,1,1,1,
aya,300,L,true,821,2,1,1,0,1,
brk,brk,brk,brk,brk,brk,brk,brk,brk,brk,
aya,301,L,true,2636,2,0,1,1,0,
aya,302,L,true,733,2,0,1,0,1,
aya,303,L,true,903,2,1,0,1,1,
aya,304,L,false,1017,1,0,1,1,0,
aya,305,L,true,1400,1,1,1,1,0,
aya,306,L,false,615,1,0,0,1,0,
aya,307,L,true,582,2,0,1,1,1,
aya,308,L,false,1110,2,0,0,1,0,
aya,309,L,true,723,1,1,1,1,1,
aya,310,L,false,1542,2,0,1,0,1,
aya,311,L,false,1027,1,0,0,0,1,
aya,312,L,true,1080,2,0,0,0,1,
aya,313,L,false,710,2,0,1,0,0,
aya,314,L,true,848,1,0,1,1,1,
aya,315,L,true,566,1,0,1,1,1,
aya,316,L,true,502,1,0,0,1,1,
aya,317,L,true,623,2,0,0,1,1,
aya,318,L,true,674,1,1,1,1,1,
aya,319,L,false,1485,1,0,0,0,1,
aya,320,L,true,513,1,0,0,1,1,
aya,321,L,true,1019,2,1,1,1,1,
aya,322,L,true,558,2,1,1,1,1,
aya,323,L,true,489,1,1,0,1,1,
aya,324,L,false,806,1,1,0,1,0,
aya,325,L,false,791,1,0,1,0,1,
aya,326,L,false,709,1,0,1,0,1,
aya,327,L,true,584,1,1,1,1,1,
aya,328,L,true,616,2,1,0,1,1,
aya,329,L,true,553,2,0,1,1,1,
aya,330,L,true,458,1,1,1,1,1,
aya,331,L,true,649,2,1,0,1,1,
aya,332,L,false,1284,1,0,1,0,1,
aya,333,L,true,1558,2,0,0,1,0,
aya,334,L,false,431,2,0,0,0,1,
aya,335,L,false,597,1,1,1,0,1,
aya,336,L,true,660,1,1,1,1,1,
aya,337,L,true,593,1,0,1,1,1,
aya,338,L,true,847,1,0,1,1,0,
aya,339,L,false,693,2,0,1,0,1,
aya,340,L,true,735,1,1,1,1,1,
aya,341,L,false,1151,1,0,0,0,1,
aya,342,L,true,693,1,0,0,1,1,
aya,343,L,false,632,2,0,0,0,0,
aya,344,L,false,2142,1,1,1,1,0,
aya,345,L,true,1318,2,0,1,1,1,
aya,346,L,true,1535,1,1,0,1,1,
aya,347,L,true,1368,1,0,1,1,1,
aya,348,L,true,1119,2,1,0,1,1,
aya,349,L,false,1275,2,0,0,1,1,
aya,350,L,true,1426,2,0,1,0,1,
aya,351,L,false,1645,1,0,0,1,0,
aya,352,L,false,1015,1,0,1,1,0,
aya,353,L,true,710,1,0,1,1,0,
aya,354,L,true,607,1,0,1,1,1,
aya,355,L,true,1412,2,1,0,1,1,
aya,356,L,true,616,1,0,0,1,1,
aya,357,L,true,592,2,1,0,1,1,
aya,358,L,true,1065,2,0,0,0,1,
aya,359,L,true,683,2,0,1,1,0,
aya,360,L,true,599,2,0,0,1,1,
aya,361,L,true,542,1,1,0,1,1,
aya,362,L,true,679,2,0,1,1,0,
aya,363,L,true,581,2,1,0,1,1,
aya,364,L,true,1117,1,0,0,1,1,
aya,365,L,true,711,2,0,0,1,1,
aya,366,L,false,915,1,1,1,0,1,
aya,367,L,true,540,2,0,0,1,0,
aya,368,L,true,559,2,1,1,1,1,
aya,369,L,false,519,1,1,1,0,0,
aya,370,L,false,648,2,0,0,0,0,
aya,371,L,false,632,1,0,0,0,0,
aya,372,L,true,854,1,1,1,1,0,
aya,373,L,true,663,1,0,1,1,1,
aya,374,L,true,550,1,1,1,1,1,
aya,375,L,true,1049,2,1,0,1,0,
aya,376,L,false,742,1,0,0,1,0,
aya,377,L,true,583,2,0,0,1,1,
aya,378,L,true,618,1,1,1,1,1,
aya,379,L,true,806,2,0,0,1,0,
aya,380,L,true,917,1,1,0,1,0,
aya,381,L,false,990,1,0,1,0,1,
aya,382,L,true,550,1,1,0,1,1,
aya,383,L,true,616,1,1,0,1,1,
aya,384,L,false,744,2,1,0,0,0,
aya,385,L,true,875,2,1,0,1,1,
aya,386,L,true,602,1,0,1,1,1,
aya,387,L,true,1158,1,1,1,1,1,
aya,388,L,false,1199,1,1,0,0,0,
aya,389,L,true,1108,2,1,0,1,0,
aya,390,L,false,598,2,0,1,0,0,
aya,391,L,false,625,1,0,0,0,1,
aya,392,L,true,632,2,1,1,1,0,
aya,393,L,true,690,1,1,1,1,0,
aya,394,L,true,544,2,1,1,1,1,
aya,395,L,false,1057,1,0,1,0,1,
aya,396,L,true,534,2,1,0,1,1,
aya,397,L,true,727,1,1,1,1,1,
aya,398,L,true,661,1,0,1,1,1,
aya,399,L,false,734,2,0,1,0,1,
aya,400,L,false,696,2,0,1,0,1,
brk,brk,brk,brk,brk,brk,brk,brk,brk,brk,
aya,401,L,true,1991,1,1,0,1,1,
aya,402,L,true,1084,1,1,1,1,0,
aya,403,L,true,594,2,1,0,1,0,
aya,404,L,false,641,1,0,1,0,1,
aya,405,L,true,550,2,0,1,1,1,
aya,406,L,false,782,2,0,0,0,1,
aya,407,L,false,613,1,1,1,0,1,
aya,408,L,true,701,2,0,1,1,0,
aya,409,L,true,582,2,0,0,1,0,
aya,410,L,false,640,2,0,1,0,1,
aya,411,L,true,506,1,0,1,1,0,
aya,412,L,false,587,1,0,1,0,1,
aya,413,L,true,511,1,1,0,1,0,
aya,414,L,true,517,2,1,0,1,1,
aya,415,L,true,546,2,1,1,1,1,
aya,416,L,false,515,1,1,1,0,0,
aya,417,L,true,493,2,1,0,1,1,
aya,418,L,true,490,2,0,0,1,1,
aya,419,L,false,1016,2,0,0,0,1,
aya,420,L,false,587,2,0,1,0,0,
aya,421,L,true,979,1,0,0,1,1,
aya,422,L,false,771,1,0,0,0,0,
aya,423,L,true,1068,1,0,0,1,1,
aya,424,L,true,727,1,1,1,1,1,
aya,425,L,true,512,1,0,1,1,1,
aya,426,L,false,494,2,0,1,0,1,
aya,427,L,true,452,1,0,0,1,1,
aya,428,L,false,518,2,0,1,0,0,
aya,429,L,true,464,1,1,1,1,1,
aya,430,L,true,799,1,1,1,1,0,
aya,431,L,false,669,2,0,1,0,1,
aya,432,L,true,711,2,0,1,1,1,
aya,433,L,true,858,2,1,1,0,1,
aya,434,L,true,554,2,1,1,1,1,
aya,435,L,true,607,1,1,1,1,1,
aya,436,L,true,597,2,1,0,1,1,
aya,437,L,false,945,1,1,0,1,0,
aya,438,L,false,576,1,1,0,0,1,
aya,439,L,true,636,2,0,1,1,1,
aya,440,L,true,688,2,1,0,1,1,
aya,441,L,true,686,1,0,1,1,1,
aya,442,L,false,600,2,1,1,0,1,
aya,443,L,true,739,2,1,1,1,1,
aya,444,L,false,949,2,1,0,0,1,
aya,445,L,true,708,2,1,0,1,0,
aya,446,L,false,752,2,1,0,0,1,
aya,447,L,true,778,1,1,1,1,1,
aya,448,L,true,658,2,0,1,1,1,
aya,449,L,true,557,1,0,1,1,1,
aya,450,L,true,550,2,0,0,1,1,
aya,451,L,true,496,1,0,1,1,1,
aya,452,L,false,548,2,0,1,0,1,
aya,453,L,true,485,2,0,1,1,1,
aya,454,L,true,775,2,1,0,1,0,
aya,455,L,false,652,2,0,0,0,1,
aya,456,L,true,1622,1,1,1,1,0,
aya,457,L,true,596,2,0,1,1,1,
aya,458,L,true,1276,1,1,0,1,0,
aya,459,L,true,519,2,1,0,1,0,
aya,460,L,true,463,2,1,0,1,1,
aya,461,L,true,598,1,1,1,1,1,
aya,462,L,false,542,1,0,0,0,1,
aya,463,L,true,551,1,1,1,1,1,
aya,464,L,true,460,1,1,0,1,1,
aya,465,L,false,472,1,1,1,0,1,
aya,466,L,true,476,2,1,1,1,1,
aya,467,L,true,447,2,0,1,1,1,
aya,468,L,false,559,1,1,1,0,0,
aya,469,L,true,541,2,1,0,1,1,
aya,470,L,true,611,2,1,1,1,1,
aya,471,L,true,571,1,1,0,1,1,
aya,472,L,true,440,1,1,1,1,1,
aya,473,L,true,518,2,0,1,1,1,
aya,474,L,false,529,2,0,1,0,0,
aya,475,L,true,541,2,1,1,1,1,
aya,476,L,true,659,2,1,1,1,1,
aya,477,L,true,582,1,1,1,1,1,
aya,478,L,true,570,2,0,0,1,0,
aya,479,L,true,485,2,0,0,1,1,
aya,480,L,true,738,1,0,0,1,1,
aya,481,L,true,511,2,0,1,1,1,
aya,482,L,true,469,1,0,1,1,0,
aya,483,L,true,503,1,0,1,1,1,
aya,484,L,true,1182,1,1,0,1,0,
aya,485,L,true,1014,1,1,0,1,0,
aya,486,L,true,1204,2,0,0,1,1,
aya,487,L,true,665,2,0,1,1,0,
aya,488,L,true,631,1,1,0,1,1,
aya,489,L,false,803,2,0,0,0,1,
aya,490,L,false,1295,1,1,1,0,1,
aya,491,L,false,1984,2,0,0,0,0,
aya,492,L,true,2584,1,1,0,1,1,
aya,493,L,true,1858,1,1,1,1,0,
aya,494,L,true,1709,2,0,0,1,1,
aya,495,L,true,716,1,0,1,0,0,
aya,496,L,false,2264,1,1,0,0,0,
aya,497,L,false,2252,1,0,0,0,0,
aya,498,L,false,1045,1,0,1,0,1,
aya,499,L,true,894,2,1,0,1,1,
aya,500,L,true,1956,1,1,1,1,1,
subID,trialNum,cntBalance,correct,rt,winner,p1conf,p2conf,p1rslt,p2rslt,
ga4,1,L,true,5020,1,1,1,1,1,
ga4,2,L,true,5205,2,0,1,0,0,
ga4,3,L,true,6559,2,0,1,0,0,
ga4,4,L,true,5173,1,1,0,1,1,
ga4,5,L,true,11099,2,0,1,1,1,
ga4,6,L,true,3141,1,1,0,1,1,
ga4,7,L,true,7442,1,0,1,0,1,
ga4,8,L,true,6502,1,0,0,1,0,
ga4,9,L,true,9374,2,0,1,0,1,
ga4,10,L,true,2123,1,1,0,1,1,
ga4,11,L,false,3423,1,0,1,1,0,
ga4,12,L,true,3855,2,1,0,1,0,
ga4,13,L,true,3561,2,1,0,1,1,
ga4,14,L,true,6972,2,1,0,1,0,
ga4,15,L,true,5759,1,1,0,1,1,
ga4,16,L,false,8046,1,0,0,0,1,
ga4,17,L,false,5438,2,1,0,0,1,
ga4,18,L,true,2950,2,1,1,1,1,
ga4,19,L,true,2487,2,0,0,1,1,
ga4,20,L,true,5303,2,1,1,1,0,
ga4,21,L,true,4735,1,1,1,1,1,
ga4,22,L,true,1637,1,1,0,1,1,
ga4,23,L,false,2859,2,1,0,0,1,
ga4,24,L,false,3607,2,1,1,0,1,
ga4,25,L,true,3232,1,1,1,1,1,
ga4,26,L,false,1790,1,0,1,0,0,
ga4,27,L,true,1548,1,1,1,1,1,
ga4,28,L,true,2428,2,0,1,1,1,
ga4,29,L,false,3766,1,1,0,0,1,
ga4,30,L,true,3174,2,1,0,1,1,
ga4,31,L,true,1937,2,1,1,1,1,
ga4,32,L,true,1419,2,1,1,1,1,
ga4,33,L,true,1943,1,1,1,1,1,
ga4,34,L,true,1954,1,1,0,1,1,
ga4,35,L,true,1910,1,1,0,1,0,
ga4,36,L,true,1719,1,1,0,1,1,
ga4,37,L,false,3301,1,0,1,0,0,
ga4,38,L,true,5829,2,1,0,1,1,
ga4,39,L,true,2361,1,1,0,1,1,
ga4,40,L,true,1336,1,0,1,1,1,
ga4,41,L,true,3519,2,0,0,1,0,
ga4,42,L,true,11371,1,0,1,1,1,
ga4,43,L,false,1275,1,0,0,0,0,
ga4,44,L,true,2275,1,0,1,1,1,
ga4,45,L,true,1118,2,1,1,1,1,
ga4,46,L,true,1079,1,1,1,1,1,
ga4,47,L,true,2007,2,1,0,1,0,
ga4,48,L,true,5249,1,1,1,1,0,
ga4,49,L,true,1863,1,1,0,1,1,
ga4,50,L,true,7213,1,0,0,1,1,
ga4,51,L,true,1375,1,1,1,1,1,
ga4,52,L,true,5604,2,0,0,1,1,
ga4,53,L,true,4238,1,0,0,1,0,
ga4,54,L,false,2936,1,1,1,0,1,
ga4,55,L,true,5143,2,1,0,1,0,
ga4,56,L,true,7102,1,1,0,1,1,
ga4,57,L,true,1667,1,0,1,1,1,
ga4,58,L,true,1140,1,1,0,1,1,
ga4,59,L,true,1193,2,1,0,1,0,
ga4,60,L,true,3220,2,0,1,0,1,
ga4,61,L,false,5088,1,0,0,1,0,
ga4,62,L,true,1887,1,0,0,1,1,
ga4,63,L,true,3560,2,1,1,1,1,
ga4,64,L,true,1722,1,1,1,1,1,
ga4,65,L,true,3098,1,0,0,1,0,
ga4,66,L,true,5036,1,1,1,1,0,
ga4,67,L,true,1741,2,1,1,1,0,
ga4,68,L,true,3937,2,1,1,1,1,
ga4,69,L,true,1134,1,1,1,1,1,
ga4,70,L,true,2375,2,1,0,1,1,
ga4,71,L,false,9996,2,0,1,1,0,
ga4,72,L,true,2784,2,0,1,0,1,
ga4,73,L,true,1428,2,1,1,1,1,
ga4,74,L,true,1476,2,1,0,1,1,
ga4,75,L,false,2125,1,1,0,0,1,
ga4,76,L,true,3799,2,0,1,1,1,
ga4,77,L,true,3332,1,0,0,1,0,
ga4,78,L,false,2091,2,0,1,0,0,
ga4,79,L,true,1883,1,0,1,1,1,
ga4,80,L,false,3822,1,0,1,0,0,
ga4,81,L,true,2981,2,1,1,1,1,
ga4,82,L,true,9447,2,1,1,1,0,
ga4,83,L,true,3422,2,0,0,1,0,
ga4,84,L,true,2133,1,0,1,1,1,
ga4,85,L,true,1150,1,1,1,1,1,
ga4,86,L,true,1790,2,0,1,0,1,
ga4,87,L,true,1342,1,1,0,1,0,
ga4,88,L,false,2383,1,0,0,0,1,
ga4,89,L,true,1669,2,1,0,1,1,
ga4,90,L,true,1457,2,1,0,1,1,
brk,brk,brk,brk,brk,brk,brk,brk,brk,brk,
ga4,91,L,false,6240,2,0,0,0,0,
ga4,92,L,true,2074,2,0,0,1,1,
ga4,93,L,false,4703,1,1,1,1,0,
ga4,94,L,true,2082,1,1,0,1,0,
ga4,95,L,true,1216,2,1,1,1,1,
ga4,96,L,true,1468,2,0,1,1,1,
ga4,97,L,false,1135,1,0,1,0,0,
ga4,98,L,false,2808,1,0,1,1,0,
ga4,99,L,true,4184,1,0,0,1,1,
ga4,100,L,true,1183,1,0,1,1,1,
ga4,101,L,true,3450,1,1,0,1,1,
ga4,102,L,false,7364,2,0,1,1,0,
ga4,103,L,true,4671,1,0,1,0,1,
ga4,104,L,false,2287,2,0,1,0,0,
ga4,105,L,false,4166,2,0,0,0,1,
ga4,106,L,true,1073,1,0,1,1,1,
ga4,107,L,true,6576,1,0,1,0,1,
ga4,108,L,false,2957,2,1,0,0,1,
ga4,109,L,false,4119,1,0,0,0,0,
ga4,110,L,false,2919,2,1,1,1,0,
ga4,111,L,false,5622,1,1,1,0,1,
ga4,112,L,true,4257,2,1,0,1,1,
ga4,113,L,true,1407,1,0,0,1,1,
ga4,114,L,false,2275,2,0,1,0,0,
ga4,115,L,true,2202,2,1,0,1,1,
ga4,116,L,true,1047,2,1,1,1,1,
ga4,117,L,true,1917,1,0,0,1,1,
ga4,118,L,true,1607,2,0,1,1,1,
ga4,119,L,true,1133,1,0,0,1,1,
ga4,120,L,true,1025,2,1,1,1,1,
ga4,121,L,true,4388,2,0,1,0,1,
ga4,122,L,true,1899,1,1,0,1,1,
ga4,123,L,true,1449,1,1,1,1,1,
ga4,124,L,true,1479,1,1,1,1,0,
ga4,125,L,false,4838,1,1,1,0,1,
ga4,126,L,true,2260,1,1,0,1,1,
ga4,127,L,true,2768,1,0,1,0,1,
ga4,128,L,true,1631,1,0,1,1,1,
ga4,129,L,true,3769,1,1,0,1,0,
ga4,130,L,false,2790,1,1,0,0,1,
ga4,131,L,true,5127,2,1,1,1,1,
ga4,132,L,false,8481,1,0,0,0,1,
ga4,133,L,true,2454,1,1,0,1,1,
ga4,134,L,true,1839,1,1,1,1,1,
ga4,135,L,true,902,1,0,0,1,1,
ga4,136,L,false,863,2,0,1,0,0,
ga4,137,L,false,1813,2,1,0,0,1,
ga4,138,L,true,2089,2,1,0,1,0,
ga4,139,L,true,1191,1,1,0,1,1,
ga4,140,L,true,1918,2,1,1,1,1,
ga4,141,L,true,1222,2,1,1,1,1,
ga4,142,L,true,997,1,1,0,1,1,
ga4,143,L,true,1274,2,1,1,1,1,
ga4,144,L,true,775,1,0,0,1,1,
ga4,145,L,true,883,2,1,1,1,1,
ga4,146,L,false,739,2,0,1,0,0,
ga4,147,L,true,1422,2,1,0,1,1,
ga4,148,L,false,4164,2,0,0,0,1,
ga4,149,L,false,2511,1,1,0,0,1,
ga4,150,L,true,1128,1,0,0,1,1,
ga4,151,L,false,3200,1,1,0,0,1,
ga4,152,L,false,3329,2,0,1,1,0,
ga4,153,L,true,3002,2,1,0,1,0,
ga4,154,L,true,3058,2,1,1,1,1,
ga4,155,L,true,2160,1,0,1,0,1,
ga4,156,L,false,2218,2,0,0,0,0,
ga4,157,L,false,7047,2,0,0,0,1,
ga4,158,L,true,2394,2,0,1,1,1,
ga4,159,L,false,3757,2,0,0,0,1,
ga4,160,L,true,5785,1,1,0,1,1,
ga4,161,L,true,5520,1,1,1,1,0,
ga4,162,L,false,12212,2,0,1,1,0,
ga4,163,L,true,6292,2,0,1,0,1,
ga4,164,L,true,1746,1,1,1,0,1,
ga4,165,L,true,2594,2,0,1,1,1,
ga4,166,L,false,4705,1,1,0,0,1,
ga4,167,L,false,3919,2,0,0,0,1,
ga4,168,L,true,3670,2,1,0,1,1,
ga4,169,L,false,12464,1,0,0,1,0,
ga4,170,L,true,2444,1,0,0,1,1,
ga4,171,L,false,2234,2,1,1,0,1,
ga4,172,L,true,2233,1,0,1,0,1,
ga4,173,L,true,1970,2,1,1,1,1,
ga4,174,L,false,2801,2,0,0,0,1,
ga4,175,L,true,4110,1,0,1,0,1,
ga4,176,L,false,7284,2,0,0,0,1,
ga4,177,L,true,7539,1,1,1,1,0,
ga4,178,L,false,1829,1,1,0,0,0,
ga4,179,L,true,1752,1,0,0,1,1,
ga4,180,L,true,1834,1,0,0,1,1,
brk,brk,brk,brk,brk,brk,brk,brk,brk,brk,
ga4,181,L,true,3120,2,0,0,1,1,
ga4,182,L,true,1228,2,0,0,1,1,
ga4,183,L,false,1380,2,0,1,0,0,
ga4,184,L,true,962,1,1,1,1,1,
ga4,185,L,false,1245,2,1,0,0,0,
ga4,186,L,true,1058,2,1,1,1,1,
ga4,187,L,true,1113,2,0,0,1,1,
ga4,188,L,false,3455,2,0,0,0,1,
ga4,189,L,true,1293,2,1,1,1,1,
ga4,190,L,true,3401,1,0,1,0,1,
ga4,191,L,false,2356,1,0,0,0,1,
ga4,192,L,false,8509,1,1,0,0,0,
ga4,193,L,true,1208,2,1,0,1,1,
ga4,194,L,false,1059,1,1,0,1,0,
ga4,195,L,true,2476,2,1,0,1,1,
ga4,196,L,true,2801,1,0,0,1,0,
ga4,197,L,true,1936,1,0,1,1,1,
ga4,198,L,true,9103,1,0,1,0,1,
ga4,199,L,false,5165,2,1,1,0,1,
ga4,200,L,true,3175,1,0,1,0,1,
ga4,201,L,true,2371,1,0,1,1,1,
ga4,202,L,true,2257,2,1,0,1,0,
ga4,203,L,true,2599,2,1,1,1,0,
ga4,204,L,true,1288,1,0,0,1,1,
ga4,205,L,true,2063,1,0,1,1,1,
ga4,206,L,true,1840,2,1,1,1,1,
ga4,207,L,true,3751,2,1,1,1,0,
ga4,208,L,false,1832,2,1,0,0,1,
ga4,209,L,true,2575,1,1,0,1,1,
ga4,210,L,true,1481,1,0,0,1,1,
ga4,211,L,true,1697,2,1,1,1,1,
ga4,212,L,true,3568,2,0,1,1,1,
ga4,213,L,true,7666,1,1,0,1,0,
ga4,214,L,true,1658,2,0,0,1,1,
ga4,215,L,false,1187,2,0,0,0,0,
ga4,216,L,false,1314,1,0,0,0,0,
ga4,217,L,true,1621,2,1,1,1,1,
ga4,218,L,true,3168,1,0,0,1,0,
ga4,219,L,true,2712,2,1,1,1,1,
ga4,220,L,false,7064,2,0,1,0,0,
ga4,221,L,true,3255,1,1,1,1,0,
ga4,222,L,true,1273,1,1,1,1,1,
ga4,223,L,false,1319,2,0,1,0,0,
ga4,224,L,true,1632,2,1,0,1,1,
ga4,225,L,true,3548,2,1,0,1,1,
ga4,226,L,true,1533,1,1,0,1,1,
ga4,227,L,true,2923,2,1,1,1,0,
ga4,228,L,false,3152,1,0,0,0,1,
ga4,229,L,true,2146,1,1,1,1,1,
ga4,230,L,true,2426,1,0,0,1,0,
ga4,231,L,false,2167,1,1,0,0,1,
ga4,232,L,true,8774,2,1,0,1,0,
ga4,233,L,false,6615,1,1,0,0,1,
ga4,234,L,false,2166,1,0,0,0,0,
ga4,235,L,true,2404,1,1,1,1,0,
ga4,236,L,true,4350,1,0,0,1,1,
ga4,237,L,true,3184,1,1,0,1,1,
ga4,238,L,true,1643,1,1,0,1,0,
ga4,239,L,false,1984,2,0,0,0,1,
ga4,240,L,false,1831,2,0,0,0,1,
ga4,241,L,false,1328,2,0,0,1,1,
ga4,242,L,true,1439,1,1,1,1,1,
ga4,243,L,true,2655,1,1,0,1,0,
ga4,244,L,false,5590,1,0,1,1,0,
ga4,245,L,true,1569,1,1,1,1,1,
ga4,246,L,true,891,1,1,1,1,1,
ga4,247,L,true,2355,2,0,0,1,0,
ga4,248,L,true,2671,2,1,1,1,1,
ga4,249,L,true,1198,2,1,0,1,1,
ga4,250,L,true,1016,1,0,1,1,1,
ga4,251,L,true,1976,2,1,0,1,0,
ga4,252,L,true,2716,1,1,1,1,0,
ga4,253,L,true,1428,1,1,0,1,1,
ga4,254,L,false,1432,1,0,0,0,0,
ga4,255,L,true,1509,2,1,0,1,0,
ga4,256,L,false,4478,1,0,0,0,1,
ga4,257,L,true,2719,1,1,0,1,1,
ga4,258,L,false,4960,1,0,0,0,1,
ga4,259,L,true,2908,1,1,0,1,1,
ga4,260,L,true,1413,1,1,0,1,0,
ga4,261,L,false,999,2,1,1,0,0,
ga4,262,L,false,1515,1,0,0,0,0,
ga4,263,L,true,5330,1,0,1,1,1,
ga4,264,L,true,4225,1,1,0,1,1,
ga4,265,L,false,3641,2,1,1,0,1,
ga4,266,L,true,8269,2,0,1,1,1,
ga4,267,L,true,2991,1,0,1,1,1,
ga4,268,L,true,2662,1,1,1,1,0,
ga4,269,L,false,2558,1,0,1,1,0,
ga4,270,L,true,1127,1,0,0,1,1,
brk,brk,brk,brk,brk,brk,brk,brk,brk,brk,
ga4,271,L,true,2548,1,0,0,0,1,
ga4,272,L,false,1870,1,1,0,0,0,
ga4,273,L,true,799,2,1,1,1,1,
ga4,274,L,true,1482,1,0,0,1,0,
ga4,275,L,false,1783,1,0,1,0,0,
ga4,276,L,true,2118,2,1,0,1,1,
ga4,277,L,false,4524,1,0,1,1,0,
ga4,278,L,false,2313,1,1,0,0,1,
ga4,279,L,true,835,1,0,0,1,1,
ga4,280,L,true,2144,2,0,1,1,1,
ga4,281,L,true,1203,1,0,0,1,1,
ga4,282,L,false,2050,2,1,0,0,1,
ga4,283,L,false,3101,1,1,0,0,1,
ga4,284,L,true,1260,2,1,1,1,1,
ga4,285,L,true,5163,2,0,0,1,1,
ga4,286,L,true,742,2,0,0,1,1,
ga4,287,L,false,2800,2,0,1,0,0,
ga4,288,L,true,1299,2,1,1,0,1,
ga4,289,L,false,1324,1,1,1,1,0,
ga4,290,L,true,3256,1,0,1,0,1,
ga4,291,L,true,1580,1,1,1,1,1,
ga4,292,L,true,10463,1,0,0,1,0,
ga4,293,L,true,5665,1,1,1,1,1,
ga4,294,L,true,3516,1,0,1,0,1,
ga4,295,L,true,2521,2,1,0,1,0,
ga4,296,L,true,1535,2,0,0,1,1,
ga4,297,L,true,2644,1,0,1,0,1,
ga4,298,L,false,2509,2,1,0,0,1,
ga4,299,L,true,1590,2,1,1,1,1,
ga4,300,L,false,1200,2,1,1,0,0,
ga4,301,L,false,2335,1,0,0,0,1,
ga4,302,L,true,860,1,1,1,1,1,
ga4,303,L,true,1269,1,1,1,1,1,
ga4,304,L,true,1311,2,0,1,1,1,
ga4,305,L,true,1143,1,1,0,1,1,
ga4,306,L,true,2136,1,0,1,1,1,
ga4,307,L,true,2471,1,1,1,1,1,
ga4,308,L,true,1477,2,1,0,1,1,
ga4,309,L,false,1112,1,1,1,0,0,
ga4,310,L,true,3688,1,1,0,1,1,
ga4,311,L,true,1987,2,1,0,1,1,
ga4,312,L,true,7488,2,1,1,1,0,
ga4,313,L,true,2494,2,1,1,1,0,
ga4,314,L,true,2007,1,1,0,1,1,
ga4,315,L,true,1324,1,1,0,1,1,
ga4,316,L,true,967,1,1,1,1,1,
ga4,317,L,false,1062,1,0,1,1,0,
ga4,318,L,false,5671,1,0,1,1,0,
ga4,319,L,false,1422,1,0,1,0,0,
ga4,320,L,true,2263,2,0,0,1,0,
ga4,321,L,true,950,1,0,0,1,1,
ga4,322,L,false,1910,2,0,0,1,0,
ga4,323,L,true,2469,2,1,0,1,1,
ga4,324,L,true,1127,1,1,1,1,1,
ga4,325,L,true,2540,2,0,1,1,1,
ga4,326,L,true,3143,2,1,1,1,0,
ga4,327,L,false,1647,2,1,0,0,0,
ga4,328,L,true,1793,2,1,0,1,1,
ga4,329,L,false,949,2,1,1,0,0,
ga4,330,L,false,2767,1,1,0,0,0,
ga4,331,L,false,8097,2,0,0,0,1,
ga4,332,L,true,1918,2,0,1,0,1,
ga4,333,L,true,1809,2,1,0,1,1,
ga4,334,L,false,957,1,1,1,1,0,
ga4,335,L,true,1582,1,0,0,1,0,
ga4,336,L,true,910,1,1,0,1,1,
ga4,337,L,true,2006,2,1,0,1,1,
ga4,338,L,true,3997,2,0,1,0,1,
ga4,339,L,true,5738,1,0,1,1,1,
ga4,340,L,true,2062,2,0,1,1,1,
ga4,341,L,false,939,2,0,1,1,0,
ga4,342,L,true,1090,1,0,0,1,1,
ga4,343,L,true,2414,2,0,1,1,1,
ga4,344,L,false,1118,1,1,1,0,0,
ga4,345,L,true,2397,2,0,1,1,1,
ga4,346,L,true,712,1,0,0,1,1,
ga4,347,L,true,653,1,0,0,1,1,
ga4,348,L,true,1053,1,1,0,1,1,
ga4,349,L,true,852,1,0,1,1,1,
ga4,350,L,true,3450,2,1,0,1,1,
ga4,351,L,false,2251,2,0,0,0,1,
ga4,352,L,false,3051,1,1,1,0,1,
ga4,353,L,false,1732,1,0,0,0,1,
ga4,354,L,true,1334,1,1,1,1,1,
ga4,355,L,true,1031,2,1,1,1,1,
ga4,356,L,true,1926,1,1,0,1,0,
ga4,357,L,true,2165,1,0,0,1,0,
ga4,358,L,false,2126,1,0,1,1,0,
ga4,359,L,false,1250,2,0,0,0,1,
ga4,360,L,true,8281,2,1,1,1,0,
brk,brk,brk,brk,brk,brk,brk,brk,brk,brk,
ga4,361,L,false,2624,1,1,0,0,0,
ga4,362,L,false,954,2,0,1,0,0,
ga4,363,L,true,1303,2,1,0,1,1,
ga4,364,L,false,1084,1,1,1,1,0,
ga4,365,L,false,2691,2,1,0,0,1,
ga4,366,L,false,4684,2,0,1,0,0,
ga4,367,L,true,5937,1,0,1,1,1,
ga4,368,L,true,3373,2,1,1,1,0,
ga4,369,L,true,945,1,1,0,1,1,
ga4,370,L,true,1459,2,1,0,1,0,
ga4,371,L,true,1123,2,1,1,1,1,
ga4,372,L,true,1936,2,0,0,1,1,
ga4,373,L,true,6647,1,0,1,1,1,
ga4,374,L,true,660,1,0,0,1,1,
ga4,375,L,true,1648,2,1,1,1,1,
ga4,376,L,true,686,1,0,0,1,1,
ga4,377,L,true,2118,1,0,0,1,0,
ga4,378,L,true,5329,1,0,1,1,1,
ga4,379,L,false,1049,2,1,1,0,0,
ga4,380,L,true,2378,1,0,1,0,1,
ga4,381,L,true,1096,1,1,1,1,1,
ga4,382,L,true,1837,2,1,0,1,0,
ga4,383,L,false,11375,1,1,0,0,0,
ga4,384,L,true,4245,2,1,1,1,0,
ga4,385,L,false,5967,1,1,1,0,1,
ga4,386,L,true,4843,2,1,0,1,0,
ga4,387,L,true,7091,2,1,1,1,1,
ga4,388,L,true,1667,1,1,0,1,1,
ga4,389,L,true,1566,1,1,1,1,0,
ga4,390,L,true,1634,2,0,0,1,1,
ga4,391,L,false,5056,2,0,0,0,1,
ga4,392,L,false,3820,1,0,1,1,0,
ga4,393,L,true,5338,2,1,0,1,1,
ga4,394,L,false,17335,2,0,0,0,1,
ga4,395,L,true,1759,1,0,0,1,1,
ga4,396,L,false,2199,2,0,1,0,0,
ga4,397,L,true,1076,2,1,1,1,1,
ga4,398,L,true,4054,2,1,0,1,0,
ga4,399,L,false,823,2,0,0,0,0,
ga4,400,L,false,2641,1,1,0,0,0,
ga4,401,L,false,916,2,1,0,0,0,
ga4,402,L,false,849,2,0,0,0,0,
ga4,403,L,true,1099,1,1,1,1,1,
ga4,404,L,false,838,2,1,1,0,1,
ga4,405,L,true,1075,2,1,0,1,1,
ga4,406,L,true,1666,2,1,0,1,0,
ga4,407,L,false,4870,1,0,0,0,1,
ga4,408,L,true,2195,1,0,1,1,1,
ga4,409,L,true,836,1,0,0,1,1,
ga4,410,L,true,847,1,1,1,1,1,
ga4,411,L,false,1724,1,0,1,0,0,
ga4,412,L,true,2646,2,1,0,1,1,
ga4,413,L,true,950,2,1,1,1,1,
ga4,414,L,true,719,1,0,0,1,1,
ga4,415,L,true,1544,2,1,0,1,1,
ga4,416,L,true,702,1,1,0,1,1,
ga4,417,L,true,1254,1,1,0,1,1,
ga4,418,L,true,909,2,1,1,1,1,
ga4,419,L,true,1682,1,0,1,0,1,
ga4,420,L,true,1116,2,1,0,1,1,
ga4,421,L,true,989,1,1,0,1,1,
ga4,422,L,false,1359,2,0,1,0,0,
ga4,423,L,true,916,2,0,1,1,1,
ga4,424,L,false,2478,1,0,0,0,1,
ga4,425,L,false,2309,1,0,0,0,0,
ga4,426,L,false,8178,2,0,0,0,1,
ga4,427,L,true,13593,2,0,1,1,0,
ga4,428,L,true,3595,2,1,0,1,1,
ga4,429,L,true,1390,1,0,1,1,1,
ga4,430,L,true,3983,2,0,0,0,1,
ga4,431,L,true,8603,1,0,1,0,1,
ga4,432,L,false,10308,2,0,1,0,0,
ga4,433,L,true,2020,1,0,1,0,1,
ga4,434,L,true,1265,2,1,0,1,1,
ga4,435,L,true,3276,1,0,0,1,0,
ga4,436,L,true,682,1,0,0,1,1,
ga4,437,L,false,800,2,1,1,0,0,
ga4,438,L,false,1852,1,1,0,0,0,
ga4,439,L,true,1403,2,1,0,1,1,
ga4,440,L,true,5392,1,1,0,1,1,
ga4,441,L,true,1899,1,1,1,1,0,
ga4,442,L,false,9527,1,0,1,1,0,
ga4,443,L,true,4519,2,1,0,1,1,
ga4,444,L,true,790,2,1,1,1,1,
ga4,445,L,true,2556,2,1,0,1,0,
ga4,446,L,false,1308,1,1,0,0,1,
ga4,447,L,true,1649,1,0,0,1,1,
ga4,448,L,true,1170,1,1,0,1,1,
ga4,449,L,false,2871,1,0,0,0,1,
ga4,450,L,true,1461,2,1,1,1,1,
subID,trialNum,cntBalance,correct,rt,winner,p1conf,p2conf,p1rslt,p2rslt,
btm,1,L,false,5749,2,0,0,0,0,
btm,2,L,false,3041,1,0,1,0,1,
btm,3,L,true,1825,2,0,1,1,1,
btm,4,L,true,2084,2,1,1,1,1,
btm,5,L,false,2442,1,0,0,1,0,
btm,6,L,true,1653,2,0,1,1,0,
btm,7,L,true,1791,1,0,1,1,1,
btm,8,L,true,1095,1,1,0,1,1,
btm,9,L,false,1525,1,0,1,0,1,
btm,10,L,true,3309,2,0,1,0,1,
btm,11,L,true,3060,1,1,1,1,1,
btm,12,L,true,3752,1,0,0,1,1,
btm,13,L,true,1422,2,1,0,1,1,
btm,14,L,true,1929,1,0,0,1,0,
btm,15,L,true,1860,1,0,0,1,1,
btm,16,L,true,1473,1,0,0,1,0,
btm,17,L,true,1546,2,0,1,0,0,
btm,18,L,true,4012,2,1,0,1,0,
btm,19,L,false,3127,1,0,0,0,1,
btm,20,L,false,3374,2,1,1,1,0,
btm,21,L,true,1147,1,1,1,1,1,
btm,22,L,false,2453,2,0,1,1,0,
btm,23,L,false,2046,2,0,1,0,0,
btm,24,L,false,2196,2,1,1,0,1,
btm,25,L,true,1575,2,1,1,1,1,
btm,26,L,false,955,1,0,1,1,0,
btm,27,L,true,1087,1,1,0,0,1,
btm,28,L,true,2989,1,1,0,1,1,
btm,29,L,false,2741,2,0,0,0,1,
btm,30,L,true,2029,1,1,0,1,1,
btm,31,L,false,958,1,0,1,0,1,
btm,32,L,true,1890,1,1,1,1,1,
btm,33,L,true,1209,2,1,1,1,1,
btm,34,L,true,1275,2,1,0,1,1,
btm,35,L,true,1804,1,1,1,1,1,
btm,36,L,true,2698,1,1,0,1,1,
btm,37,L,false,1787,1,0,0,0,0,
btm,38,L,true,1432,1,0,1,0,1,
btm,39,L,true,3128,1,0,0,0,1,
btm,40,L,true,1712,2,1,1,1,0,
btm,41,L,true,1334,2,1,0,1,1,
btm,42,L,true,1015,2,1,0,1,1,
btm,43,L,true,1376,1,0,1,1,1,
btm,44,L,true,879,1,0,1,1,1,
btm,45,L,true,1073,2,0,1,0,1,
btm,46,L,false,2119,2,0,1,1,0,
btm,47,L,true,1491,2,0,1,0,1,
btm,48,L,true,832,2,0,1,0,1,
btm,49,L,false,915,1,0,1,1,1,
btm,50,L,true,2677,1,1,0,1,1,
btm,51,L,true,1528,2,1,1,1,0,
btm,52,L,true,1384,1,0,0,1,0,
btm,53,L,true,1311,1,0,0,1,1,
btm,54,L,false,1448,1,0,0,0,1,
btm,55,L,true,1096,1,1,0,1,0,
btm,56,L,true,1365,1,1,1,1,1,
btm,57,L,true,1384,2,1,0,1,1,
btm,58,L,false,833,2,1,0,0,0,
btm,59,L,false,695,1,0,1,1,1,
btm,60,L,true,1108,1,0,1,1,1,
btm,61,L,false,2284,1,0,1,0,1,
btm,62,L,false,2455,2,0,1,1,0,
btm,63,L,true,796,2,1,1,1,0,
btm,64,L,true,1372,1,1,0,1,0,
btm,65,L,true,992,2,1,1,1,1,
btm,66,L,true,1311,1,1,0,1,1,
btm,67,L,true,1632,1,0,0,1,0,
btm,68,L,true,1271,2,1,1,1,1,
btm,69,L,true,2135,2,0,0,1,0,
btm,70,L,false,871,1,1,1,1,0,
btm,71,L,true,1095,1,1,1,1,1,
btm,72,L,false,1270,2,0,0,1,0,
btm,73,L,true,1064,1,0,0,1,1,
btm,74,L,true,1046,2,1,1,1,0,
btm,75,L,true,1069,2,0,1,1,1,
btm,76,L,false,2486,2,0,0,0,0,
btm,77,L,true,873,2,1,0,1,1,
btm,78,L,false,1017,1,1,0,0,1,
btm,79,L,true,1406,2,0,0,1,0,
btm,80,L,false,1367,1,0,1,1,0,
btm,81,L,true,710,2,0,1,1,1,
btm,82,L,false,780,1,1,1,0,0,
btm,83,L,true,1074,2,0,1,0,1,
btm,84,L,false,1184,1,1,0,0,1,
btm,85,L,false,623,1,0,1,1,1,
btm,86,L,false,684,2,1,1,1,0,
btm,87,L,true,830,2,1,1,1,1,
btm,88,L,true,782,2,0,1,0,1,
btm,89,L,true,822,1,1,0,1,1,
btm,90,L,false,1040,1,1,1,1,0,
btm,91,L,true,1183,1,0,0,1,1,
btm,92,L,true,1137,2,1,0,1,0,
btm,93,L,true,713,2,1,1,1,0,
btm,94,L,true,718,2,1,1,1,1,
btm,95,L,true,792,1,1,1,1,1,
btm,96,L,true,815,1,1,0,1,1,
btm,97,L,true,1464,1,0,1,1,1,
btm,98,L,false,1438,2,0,0,1,0,
btm,99,L,false,1456,1,0,0,0,0,
btm,100,L,false,1460,2,0,0,0,1,
brk,brk,brk,brk,brk,brk,brk,brk,brk,brk,
btm,101,L,true,1569,2,1,1,1,1,
btm,102,L,false,892,2,0,0,0,0,
btm,103,L,true,762,2,0,1,1,1,
btm,104,L,false,968,2,0,0,0,0,
btm,105,L,true,639,2,1,1,1,1,
btm,106,L,true,710,2,0,1,1,1,
btm,107,L,true,1118,1,1,0,1,1,
btm,108,L,true,788,1,1,0,1,1,
btm,109,L,true,879,1,0,0,1,1,
btm,110,L,false,2375,1,0,0,0,1,
btm,111,L,true,925,1,0,0,1,1,
btm,112,L,true,992,2,1,0,1,1,
btm,113,L,false,1616,2,0,1,1,0,
btm,114,L,true,942,2,1,1,0,1,
btm,115,L,true,1174,1,1,0,1,1,
btm,116,L,true,2072,1,0,0,0,1,
btm,117,L,true,2080,1,1,0,1,1,
btm,118,L,true,1225,2,0,0,1,1,
btm,119,L,true,1426,2,1,0,1,1,
btm,120,L,true,1312,2,1,0,1,1,
btm,121,L,true,1072,2,1,0,1,1,
btm,122,L,false,1487,1,0,0,0,0,
btm,123,L,true,1496,1,1,1,1,1,
btm,124,L,true,1112,1,0,1,1,1,
btm,125,L,true,2622,1,1,1,0,1,
btm,126,L,true,1390,2,0,1,1,1,
btm,127,L,true,2232,1,1,0,1,0,
btm,128,L,true,1871,2,1,1,1,0,
btm,129,L,true,1555,2,0,1,1,1,
btm,130,L,true,1160,2,1,1,1,1,
btm,131,L,false,1286,1,1,1,1,0,
btm,132,L,true,1085,1,0,0,1,0,
btm,133,L,false,1082,1,1,1,1,0,
btm,134,L,false,716,2,1,1,1,1,
btm,135,L,true,849,2,1,0,1,1,
btm,136,L,false,635,1,1,1,0,1,
btm,137,L,true,897,1,0,1,0,1,
btm,138,L,false,782,1,0,1,1,0,
btm,139,L,true,725,2,1,1,1,1,
btm,140,L,true,584,2,1,1,1,1,
btm,141,L,true,807,2,0,1,1,1,
btm,142,L,false,848,2,0,0,0,0,
btm,143,L,true,1717,2,0,1,0,1,
btm,144,L,true,1710,2,1,0,1,1,
btm,145,L,true,1120,2,0,1,1,0,
btm,146,L,false,1376,1,0,0,1,1,
btm,147,L,true,1498,1,0,1,0,1,
btm,148,L,true,965,2,0,1,0,1,
btm,149,L,true,1032,1,0,0,1,0,
btm,150,L,true,817,2,0,1,1,1,
btm,151,L,true,585,1,0,0,1,1,
btm,152,L,true,977,1,1,0,1,1,
btm,153,L,true,691,1,1,0,1,1,
btm,154,L,true,1177,2,0,1,1,1,
btm,155,L,true,1589,2,0,0,1,0,
btm,156,L,true,886,1,1,0,1,0,
btm,157,L,false,939,1,0,1,0,0,
btm,158,L,true,939,1,1,0,1,0,
btm,159,L,true,566,1,0,0,1,1,
btm,160,L,true,712,2,1,0,1,1,
btm,161,L,false,574,1,1,1,1,1,
btm,162,L,true,863,2,0,0,1,1,
btm,163,L,false,616,1,1,1,1,1,
btm,164,L,true,931,1,1,1,1,0,
btm,165,L,false,891,1,1,0,1,0,
btm,166,L,true,735,1,1,1,1,1,
btm,167,L,true,914,2,0,0,1,1,
btm,168,L,false,968,2,1,1,0,1,
btm,169,L,true,689,2,1,1,1,1,
btm,170,L,true,831,2,0,1,0,1,
btm,171,L,true,1110,2,1,1,1,0,
btm,172,L,false,883,2,0,1,1,1,
btm,173,L,true,893,1,0,1,0,1,
btm,174,L,true,875,1,1,0,1,1,
btm,175,L,true,940,2,0,1,1,1,
btm,176,L,false,791,1,1,1,0,0,
btm,177,L,false,933,1,1,1,1,0,
btm,178,L,false,575,2,1,0,0,1,
btm,179,L,true,2904,2,0,0,1,1,
btm,180,L,true,681,1,1,1,1,1,
btm,181,L,true,918,2,0,0,0,1,
btm,182,L,true,1280,1,0,0,1,0,
btm,183,L,true,1238,1,0,1,0,1,
btm,184,L,true,1248,1,1,0,1,0,
btm,185,L,true,829,1,1,1,1,1,
btm,186,L,false,830,2,0,0,1,1,
btm,187,L,true,1064,2,1,1,1,0,
btm,188,L,true,1205,2,1,0,1,1,
btm,189,L,true,1337,1,1,1,1,1,
btm,190,L,false,1070,1,0,1,0,1,
btm,191,L,false,992,1,1,1,1,1,
btm,192,L,true,785,2,1,1,1,1,
btm,193,L,false,1136,1,0,1,1,0,
btm,194,L,true,638,1,0,0,1,1,
btm,195,L,true,1000,2,0,0,1,0,
btm,196,L,true,625,1,0,0,1,1,
btm,197,L,false,616,2,0,1,0,1,
btm,198,L,false,829,1,1,0,0,1,
btm,199,L,false,836,2,1,0,0,1,
btm,200,L,false,1835,2,0,0,1,0,
brk,brk,brk,brk,brk,brk,brk,brk,brk,brk,
btm,201,L,true,2987,2,0,1,0,1,
btm,202,L,true,558,1,1,1,1,1,
btm,203,L,true,848,1,0,1,0,1,
btm,204,L,true,728,1,0,0,1,1,
btm,205,L,true,761,2,0,1,1,0,
btm,206,L,false,368,2,1,0,1,1,
btm,207,L,false,385,1,0,1,0,0,
btm,208,L,false,297,2,0,0,1,1,
btm,209,L,false,683,1,1,0,1,0,
btm,210,L,false,813,2,0,0,0,0,
btm,211,L,true,1440,2,1,0,0,1,
btm,212,L,true,1623,2,1,1,1,0,
btm,213,L,true,702,1,1,1,1,1,
btm,214,L,true,1025,1,0,0,1,1,
btm,215,L,true,542,1,1,0,1,0,
btm,216,L,false,282,2,0,1,1,0,
btm,217,L,false,624,1,1,1,1,1,
btm,218,L,false,334,2,0,0,0,1,
btm,219,L,false,1053,1,1,0,0,0,
btm,220,L,false,1332,2,1,0,0,1,
btm,221,L,true,876,1,1,1,1,1,
btm,222,L,true,816,1,1,0,1,1,
btm,223,L,true,2133,1,1,1,1,1,
btm,224,L,true,441,1,1,0,1,1,
btm,225,L,false,636,2,0,0,1,0,
btm,226,L,true,473,1,1,0,1,1,
btm,227,L,false,489,2,0,0,0,1,
btm,228,L,false,731,1,0,0,1,0,
btm,229,L,false,662,2,1,0,1,1,
btm,230,L,false,1061,1,0,1,1,1,
btm,231,L,true,520,1,1,0,1,1,
btm,232,L,false,340,2,1,0,1,1,
btm,233,L,true,762,2,0,0,1,1,
btm,234,L,true,1101,2,0,0,0,1,
btm,235,L,true,711,1,1,1,1,1,
btm,236,L,false,778,1,0,1,1,0,
btm,237,L,true,848,1,0,1,1,1,
btm,238,L,false,1502,2,1,1,0,1,
btm,239,L,false,1098,1,0,0,0,1,
btm,240,L,false,742,1,0,1,1,0,
btm,241,L,true,1008,2,0,0,1,1,
btm,242,L,true,685,1,0,0,1,1,
btm,243,L,false,632,1,1,0,0,1,
btm,244,L,true,745,1,1,0,1,1,
btm,245,L,true,740,2,1,1,1,1,
btm,246,L,true,728,2,0,0,1,1,
btm,247,L,true,582,1,1,0,1,1,
btm,248,L,true,750,2,1,0,1,1,
btm,249,L,true,784,1,1,0,1,0,
btm,250,L,true,943,1,0,0,1,1,
btm,251,L,true,751,1,1,0,1,0,
btm,252,L,true,860,2,1,0,1,1,
btm,253,L,false,616,1,1,0,0,0,
btm,254,L,true,966,1,1,1,1,1,
btm,255,L,false,1133,2,1,1,0,1,
btm,256,L,true,569,2,0,1,1,0,
btm,257,L,true,777,2,1,1,1,0,
btm,258,L,true,698,1,1,0,1,1,
btm,259,L,true,620,1,1,0,1,0,
btm,260,L,true,576,1,1,1,1,1,
btm,261,L,true,1565,1,1,0,1,1,
btm,262,L,true,701,1,0,1,1,1,
btm,263,L,true,1590,1,1,1,1,1,
btm,264,L,true,829,1,0,0,1,1,
btm,265,L,true,917,2,0,1,1,1,
btm,266,L,true,1654,2,1,1,1,0,
btm,267,L,false,1993,1,1,1,0,0,
btm,268,L,true,751,2,0,0,1,1,
btm,269,L,true,1247,2,0,1,1,1,
btm,270,L,true,670,2,0,0,1,1,
btm,271,L,false,712,1,0,1,1,1,
btm,272,L,false,2645,1,1,0,0,1,
btm,273,L,true,508,1,1,1,1,1,
btm,274,L,true,571,1,0,0,0,1,
btm,275,L,true,807,2,0,1,0,1,
btm,276,L,true,1580,2,1,1,1,0,
btm,277,L,false,581,2,0,0,0,1,
btm,278,L,true,897,2,0,0,1,1,
btm,279,L,false,647,1,1,1,1,0,
btm,280,L,false,862,2,1,1,1,0,
btm,281,L,false,559,1,0,0,0,1,
btm,282,L,true,1211,2,0,1,0,1,
btm,283,L,true,743,1,1,1,1,1,
btm,284,L,true,1214,1,1,1,1,0,
btm,285,L,true,56,1,0,0,0,0,
btm,286,L,false,2407,2,0,1,1,1,
btm,287,L,true,1189,1,1,1,1,1,
btm,288,L,true,1361,2,1,0,1,1,
btm,289,L,true,555,2,1,1,1,0,
btm,290,L,false,499,1,1,0,0,1,
btm,291,L,false,534,1,0,1,1,0,
btm,292,L,true,336,2,0,0,0,0,
btm,293,L,false,654,2,0,1,1,1,
btm,294,L,false,726,1,1,1,1,0,
btm,295,L,true,798,2,0,0,1,1,
btm,296,L,false,567,2,1,0,1,0,
btm,297,L,true,638,2,1,1,1,1,
btm,298,L,false,586,2,0,0,0,1,
btm,299,L,false,761,1,0,1,1,0,
btm,300,L,false,646,1,1,1,1,1,
brk,brk,brk,brk,brk,brk,brk,brk,brk,brk,
btm,301,L,true,455,1,1,0,1,1,
btm,302,L,true,585,2,0,1,0,1,
btm,303,L,true,455,1,1,1,1,1,
btm,304,L,true,400,1,0,0,1,1,
btm,305,L,false,525,1,1,1,1,1,
btm,306,L,true,306,1,0,1,0,1,
btm,307,L,true,925,2,1,0,1,1,
btm,308,L,false,927,2,1,0,0,1,
btm,309,L,false,301,1,0,1,0,1,
btm,310,L,true,669,2,0,1,0,0,
btm,311,L,false,1936,2,1,1,1,1,
btm,312,L,true,1330,1,1,0,1,0,
btm,313,L,false,828,2,0,0,0,1,
btm,314,L,true,644,2,0,0,1,1,
btm,315,L,true,800,1,0,0,0,1,
btm,316,L,false,416,1,1,0,0,1,
btm,317,L,false,415,2,1,0,1,1,
btm,318,L,true,598,1,1,1,1,1,
btm,319,L,true,892,2,0,1,1,0,
btm,320,L,true,872,2,0,0,1,1,
btm,321,L,false,424,1,0,1,1,1,
btm,322,L,false,240,2,0,1,0,0,
btm,323,L,true,545,2,0,1,1,0,
btm,324,L,true,847,2,1,1,1,1,
btm,325,L,true,598,1,0,0,1,1,
btm,326,L,true,536,1,0,0,1,1,
btm,327,L,false,1063,2,0,0,0,0,
btm,328,L,true,1449,1,0,0,1,0,
btm,329,L,true,9163,2,0,1,0,1,
btm,330,L,true,862,2,0,0,1,0,
btm,331,L,false,983,2,1,0,0,1,
btm,332,L,true,1270,1,1,1,1,0,
btm,333,L,true,766,2,1,1,1,1,
btm,334,L,true,552,2,0,1,1,1,
btm,335,L,true,1093,2,0,1,0,0,
btm,336,L,true,790,2,0,1,1,0,
btm,337,L,true,2728,1,1,0,1,1,
btm,338,L,true,582,2,0,1,1,0,
btm,339,L,false,1032,1,0,1,0,1,
btm,340,L,true,664,2,1,0,1,0,
btm,341,L,true,1267,1,1,0,1,1,
btm,342,L,false,574,1,1,1,0,1,
btm,343,L,true,690,2,1,1,0,1,
btm,344,L,true,549,2,1,1,0,0,
btm,345,L,true,1651,1,0,1,1,1,
btm,346,L,false,554,2,0,0,0,0,
btm,347,L,false,688,1,0,1,1,0,
btm,348,L,true,580,1,0,0,1,1,
btm,349,L,true,566,1,1,0,1,1,
btm,350,L,true,965,1,1,0,1,0,
btm,351,L,true,1165,2,0,1,1,0,
btm,352,L,true,638,2,1,1,1,0,
btm,353,L,true,829,2,0,1,0,0,
btm,354,L,false,663,2,1,0,0,0,
btm,355,L,false,814,2,0,1,1,0,
btm,356,L,false,725,2,0,1,1,1,
btm,357,L,false,566,1,1,1,1,1,
btm,358,L,true,737,2,1,0,1,1,
btm,359,L,true,891,2,1,1,1,1,
btm,360,L,true,910,2,0,1,1,1,
btm,361,L,false,590,1,0,1,0,1,
btm,362,L,true,653,2,0,1,1,0,
btm,363,L,true,625,1,1,1,1,0,
btm,364,L,true,690,2,1,0,1,1,
btm,365,L,true,548,2,0,0,1,1,
btm,366,L,false,685,2,0,0,0,1,
btm,367,L,false,660,1,1,0,1,1,
btm,368,L,false,968,1,1,0,0,1,
btm,369,L,true,615,2,1,0,1,1,
btm,370,L,true,576,1,0,1,1,0,
btm,371,L,true,571,2,1,1,1,1,
btm,372,L,false,414,1,1,1,0,1,
btm,373,L,false,1640,1,0,1,0,1,
btm,374,L,false,641,1,1,1,1,0,
btm,375,L,true,1300,1,0,0,0,1,
btm,376,L,true,689,1,1,1,1,1,
btm,377,L,false,703,2,0,0,0,1,
btm,378,L,true,1117,2,1,0,1,0,
btm,379,L,true,1306,2,1,1,1,1,
btm,380,L,false,681,2,1,0,0,1,
btm,381,L,false,606,1,1,1,0,1,
btm,382,L,true,624,1,0,1,1,1,
btm,383,L,false,492,2,0,1,1,1,
btm,384,L,true,598,2,0,0,1,1,
btm,385,L,true,543,2,0,1,1,1,
btm,386,L,false,614,2,0,1,0,0,
btm,387,L,true,704,2,1,0,1,1,
btm,388,L,true,495,1,0,0,1,0,
btm,389,L,true,481,1,0,0,1,1,
btm,390,L,false,434,2,0,0,0,1,
btm,391,L,true,589,2,0,0,1,1,
btm,392,L,true,501,2,0,0,1,1,
btm,393,L,true,605,2,0,1,1,1,
btm,394,L,true,476,2,0,1,1,1,
btm,395,L,true,416,2,1,1,1,0,
btm,396,L,true,543,2,1,0,0,1,
btm,397,L,true,892,2,0,0,1,1,
btm,398,L,true,558,2,0,0,1,1,
btm,399,L,false,518,2,0,1,0,1,
btm,400,L,false,583,1,1,0,0,0,
brk,brk,brk,brk,brk,brk,brk,brk,brk,brk,
btm,401,L,true,867,1,1,0,1,1,
btm,402,L,true,566,1,1,1,1,1,
btm,403,L,false,746,1,0,1,1,0,
btm,404,L,true,556,1,0,1,1,1,
btm,405,L,false,517,1,1,1,0,1,
btm,406,L,true,742,2,1,0,1,1,
btm,407,L,false,534,1,1,1,0,1,
btm,408,L,true,494,1,1,0,1,1,
btm,409,L,true,886,2,0,0,1,1,
btm,410,L,true,630,1,0,0,1,0,
btm,411,L,false,1087,1,1,1,0,1,
btm,412,L,true,1028,1,0,1,1,0,
btm,413,L,false,535,1,1,0,0,1,
btm,414,L,false,502,2,1,0,1,1,
btm,415,L,false,423,1,1,0,0,1,
btm,416,L,false,866,2,0,0,0,1,
btm,417,L,true,547,2,1,0,1,1,
btm,418,L,true,632,2,0,0,0,1,
btm,419,L,true,1003,2,0,1,0,1,
btm,420,L,true,597,1,1,0,1,1,
btm,421,L,false,753,1,1,1,1,0,
btm,422,L,false,479,2,1,0,1,1,
btm,423,L,true,1143,1,1,0,1,1,
btm,424,L,false,648,2,0,0,0,0,
btm,425,L,false,1278,1,0,0,0,1,
btm,426,L,true,623,2,1,0,1,0,
btm,427,L,true,742,2,1,1,1,1,
btm,428,L,true,1199,2,0,0,1,1,
btm,429,L,false,592,1,1,0,1,0,
btm,430,L,false,606,2,0,1,0,0,
btm,431,L,false,373,1,1,1,1,0,
btm,432,L,true,567,1,0,0,1,0,
btm,433,L,true,880,2,1,0,0,1,
btm,434,L,false,1061,1,1,1,1,1,
btm,435,L,true,1102,1,0,0,1,0,
btm,436,L,true,715,2,1,1,1,0,
btm,437,L,true,782,2,1,1,1,1,
btm,438,L,true,486,1,0,0,1,1,
btm,439,L,true,1480,2,0,1,1,1,
btm,440,L,true,653,1,1,0,1,1,
btm,441,L,true,503,1,1,1,1,0,
btm,442,L,false,456,2,0,0,0,0,
btm,443,L,false,340,1,0,1,0,1,
btm,444,L,false,100,2,1,0,1,1,
btm,445,L,false,428,1,1,0,0,1,
btm,446,L,false,783,2,0,1,0,0,
btm,447,L,false,255,2,0,0,1,1,
btm,448,L,false,509,1,0,0,0,0,
btm,449,L,false,620,1,1,0,1,0,
btm,450,L,false,286,2,0,0,1,1,
btm,451,L,true,781,2,1,0,1,1,
btm,452,L,false,650,1,0,0,0,1,
btm,453,L,true,727,2,1,1,1,1,
btm,454,L,false,728,1,0,0,0,0,
btm,455,L,true,649,1,1,0,0,1,
btm,456,L,false,599,2,0,0,1,0,
btm,457,L,false,674,2,0,1,0,1,
btm,458,L,false,406,1,1,0,1,0,
btm,459,L,false,487,2,1,1,1,1,
btm,460,L,false,618,1,0,1,1,1,
btm,461,L,false,647,2,1,0,0,0,
btm,462,L,true,838,2,0,0,0,1,
btm,463,L,false,836,1,0,1,1,0,
btm,464,L,true,756,1,0,1,0,1,
btm,465,L,true,702,1,1,1,1,1,
btm,466,L,false,733,1,0,0,1,0,
btm,467,L,true,754,2,1,1,1,1,
btm,468,L,true,671,1,0,1,1,1,
btm,469,L,false,558,2,0,0,0,0,
btm,470,L,true,498,2,0,0,0,1,
btm,471,L,true,810,1,0,0,1,1,
btm,472,L,true,466,2,1,1,1,1,
btm,473,L,true,540,1,1,0,1,1,
btm,474,L,true,648,2,0,0,1,1,
btm,475,L,true,508,2,1,0,1,0,
btm,476,L,false,554,1,1,1,1,0,
btm,477,L,true,462,1,1,0,1,1,
btm,478,L,false,482,1,0,0,1,1,
btm,479,L,false,307,2,0,0,1,1,
btm,480,L,false,935,1,0,1,0,1,
btm,481,L,true,291,1,1,0,1,1,
btm,482,L,true,428,1,1,0,1,0,
btm,483,L,true,361,1,0,0,0,1,
btm,484,L,false,588,2,1,0,1,0,
btm,485,L,true,284,2,1,0,0,1,
btm,486,L,true,501,1,1,0,1,1,
btm,487,L,true,364,1,1,1,1,1,
btm,488,L,true,766,1,0,1,0,0,
btm,489,L,false,525,1,0,1,0,1,
btm,490,L,false,885,2,0,1,1,0,
btm,491,L,false,467,1,1,1,1,0,
btm,492,L,false,295,2,0,0,1,1,
btm,493,L,true,388,2,1,0,1,1,
btm,494,L,true,533,2,0,0,1,0,
btm,495,L,true,493,2,0,1,1,1,
btm,496,L,true,550,2,0,1,1,1,
btm,497,L,true,424,2,1,0,1,1,
btm,498,L,true,682,1,1,1,1,1,
btm,499,L,false,486,2,1,0,1,1,
btm,500,L,true,295,2,1,0,1,1,
subID,trialNum,cntBalance,correct,rt,winner,p1conf,p2conf,p1rslt,p2rslt,
bsp,1,R,false,192,2,0,1,1,1,
bsp,2,R,false,2730,2,1,1,0,0,
bsp,3,R,true,3615,2,0,0,1,0,
bsp,4,R,false,4330,2,1,0,0,0,
bsp,5,R,false,2572,1,0,0,0,0,
bsp,6,R,true,2508,2,0,0,1,0,
bsp,7,R,false,1600,2,0,0,1,1,
bsp,8,R,true,3520,2,0,1,1,0,
bsp,9,R,true,3632,1,1,0,0,0,
bsp,10,R,false,2318,2,1,0,1,1,
bsp,11,R,true,4383,1,1,0,1,1,
bsp,12,R,true,2526,1,1,1,1,0,
bsp,13,R,false,1844,1,0,0,0,1,
bsp,14,R,true,1771,1,1,0,1,0,
bsp,15,R,true,2064,2,1,1,1,1,
bsp,16,R,true,1534,2,0,1,1,1,
bsp,17,R,true,2034,1,1,0,1,0,
bsp,18,R,false,3660,2,0,0,0,1,
bsp,19,R,false,1598,1,0,0,0,1,
bsp,20,R,true,1552,2,0,0,1,1,
bsp,21,R,true,1743,2,0,1,1,1,
bsp,22,R,false,1661,1,0,0,1,1,
bsp,23,R,true,2660,2,0,1,1,1,
bsp,24,R,false,2508,1,1,1,0,1,
bsp,25,R,false,1476,1,1,0,1,0,
bsp,26,R,true,2160,1,1,0,1,1,
bsp,27,R,false,3234,1,1,0,0,0,
bsp,28,R,true,2570,1,1,0,1,0,
bsp,29,R,false,1599,1,0,0,0,1,
bsp,30,R,false,1759,1,1,0,1,0,
bsp,31,R,true,1616,2,0,1,1,1,
bsp,32,R,true,1262,2,0,1,1,1,
bsp,33,R,true,2400,1,0,1,0,1,
bsp,34,R,false,2558,1,0,0,0,1,
bsp,35,R,true,1360,2,1,1,1,1,
bsp,36,R,true,2030,1,0,1,1,1,
bsp,37,R,false,3565,1,1,1,0,1,
bsp,38,R,true,1215,2,1,0,1,0,
bsp,39,R,false,1134,1,0,1,1,1,
bsp,40,R,false,1457,1,1,1,0,1,
bsp,41,R,true,955,2,1,1,1,1,
bsp,42,R,false,1038,1,0,1,1,0,
bsp,43,R,true,1124,2,1,1,0,1,
bsp,44,R,false,1200,1,1,1,1,1,
bsp,45,R,true,1517,2,1,0,1,0,
bsp,46,R,true,1584,2,1,0,1,1,
bsp,47,R,true,1660,1,1,0,1,1,
bsp,48,R,true,1793,1,1,0,1,0,
bsp,49,R,false,2509,1,0,0,1,0,
bsp,50,R,false,1360,2,0,0,1,0,
bsp,51,R,true,1408,1,1,0,1,1,
bsp,52,R,false,1584,2,1,0,1,1,
bsp,53,R,false,2351,1,0,1,0,1,
bsp,54,R,true,1504,2,0,1,1,1,
bsp,55,R,false,1872,2,1,0,0,1,
bsp,56,R,true,1420,2,1,1,1,1,
bsp,57,R,true,1696,1,0,1,1,1,
bsp,58,R,false,1857,2,1,0,0,1,
bsp,59,R,false,1374,2,1,0,0,0,
bsp,60,R,true,1679,2,1,0,1,1,
bsp,61,R,true,1825,2,0,0,1,0,
bsp,62,R,true,927,1,0,0,1,1,
bsp,63,R,false,7008,1,0,1,0,1,
bsp,64,R,true,863,1,0,0,1,1,
bsp,65,R,true,1389,1,0,1,1,1,
bsp,66,R,false,1280,1,0,0,1,0,
bsp,67,R,false,1310,1,0,1,0,0,
bsp,68,R,true,1392,2,0,1,1,1,
bsp,69,R,true,2853,1,1,0,1,0,
bsp,70,R,true,1867,2,0,0,1,1,
bsp,71,R,false,1808,1,0,1,1,0,
bsp,72,R,false,1582,1,0,1,0,0,
bsp,73,R,false,1136,2,0,0,1,1,
bsp,74,R,true,1901,1,1,0,1,0,
bsp,75,R,true,1601,2,0,0,1,1,
bsp,76,R,true,1230,2,1,1,1,1,
bsp,77,R,true,1518,2,0,1,0,1,
bsp,78,R,true,1870,2,0,1,1,1,
bsp,79,R,true,1232,1,1,1,1,1,
bsp,80,R,false,3952,1,0,0,0,1,
bsp,81,R,true,1552,2,1,1,1,1,
bsp,82,R,true,1840,1,1,0,1,1,
bsp,83,R,true,5312,2,0,0,0,1,
bsp,84,R,true,2335,1,0,1,0,1,
bsp,85,R,true,1599,2,1,1,1,1,
bsp,86,R,true,3756,2,1,1,0,1,
bsp,87,R,true,2703,1,0,1,1,1,
bsp,88,R,true,3715,1,0,0,1,1,
bsp,89,R,false,2540,1,1,0,0,1,
bsp,90,R,false,1775,1,0,0,0,0,
brk,brk,brk,brk,brk,brk,brk,brk,brk,brk,
bsp,91,R,false,3187,1,0,0,0,1,
bsp,92,R,true,971,2,1,1,1,1,
bsp,93,R,true,1359,2,0,1,0,1,
bsp,94,R,true,1776,2,1,1,0,1,
bsp,95,R,true,1375,1,1,1,1,1,
bsp,96,R,true,1552,1,0,0,1,1,
bsp,97,R,true,1859,2,1,0,1,1,
bsp,98,R,true,2668,2,0,0,1,1,
bsp,99,R,true,2350,1,1,0,1,0,
bsp,100,R,false,1869,1,0,0,0,1,
bsp,101,R,true,1488,2,1,0,1,1,
bsp,102,R,true,1632,1,0,1,1,1,
bsp,103,R,true,2319,1,1,0,1,1,
bsp,104,R,true,1746,2,1,1,1,1,
bsp,105,R,false,1449,1,1,1,1,1,
bsp,106,R,true,1902,2,0,1,1,1,
bsp,107,R,false,2287,1,0,0,1,0,
bsp,108,R,true,1152,2,0,0,1,1,
bsp,109,R,true,2130,1,1,0,1,1,
bsp,110,R,true,1771,2,1,0,1,0,
bsp,111,R,true,1439,2,0,1,1,1,
bsp,112,R,true,1474,2,0,1,1,1,
bsp,113,R,true,1949,2,0,0,0,1,
bsp,114,R,true,1325,2,0,0,1,1,
bsp,115,R,true,1182,2,1,0,1,1,
bsp,116,R,false,1886,1,0,0,1,1,
bsp,117,R,true,1680,2,1,0,1,0,
bsp,118,R,true,1763,2,0,1,1,1,
bsp,119,R,false,1451,1,0,1,1,0,
bsp,120,R,true,1007,1,1,1,1,0,
bsp,121,R,false,1760,2,1,1,0,1,
bsp,122,R,false,1374,1,1,0,0,1,
bsp,123,R,true,799,1,0,0,1,1,
bsp,124,R,true,2093,1,1,0,1,0,
bsp,125,R,true,1518,1,1,0,1,0,
bsp,126,R,false,1744,2,1,0,0,1,
bsp,127,R,false,1507,2,1,0,0,0,
bsp,128,R,false,938,1,1,0,1,0,
bsp,129,R,true,1118,1,1,1,1,1,
bsp,130,R,false,1776,1,1,1,0,1,
bsp,131,R,true,1166,2,0,0,1,1,
bsp,132,R,true,1966,1,1,1,1,1,
bsp,133,R,false,910,1,0,0,0,0,
bsp,134,R,false,2401,1,0,0,1,0,
bsp,135,R,true,1742,1,1,0,1,0,
bsp,136,R,true,1023,2,0,0,1,1,
bsp,137,R,true,1343,2,0,1,1,1,
bsp,138,R,true,1918,2,0,1,1,1,
bsp,139,R,false,1391,1,1,1,0,0,
bsp,140,R,false,848,1,1,1,1,1,
bsp,141,R,true,2400,1,0,1,0,1,
bsp,142,R,true,1280,2,0,0,0,1,
bsp,143,R,false,1184,1,0,1,1,1,
bsp,144,R,false,1788,2,0,1,1,0,
bsp,145,R,true,1440,1,0,0,1,1,
bsp,146,R,true,1169,2,0,1,1,1,
bsp,147,R,true,1728,2,1,1,1,0,
bsp,148,R,true,1632,2,0,1,1,1,
bsp,149,R,false,1439,1,0,1,0,0,
bsp,150,R,true,1297,1,1,1,1,1,
bsp,151,R,true,1758,2,0,1,1,0,
bsp,152,R,true,2479,1,1,1,0,1,
bsp,153,R,true,2128,2,1,0,1,0,
bsp,154,R,false,1626,1,1,0,0,0,
bsp,155,R,false,1647,1,0,0,0,1,
bsp,156,R,false,1457,1,1,0,0,0,
bsp,157,R,false,5364,1,0,0,1,0,
bsp,158,R,false,1150,1,0,0,1,0,
bsp,159,R,false,986,2,1,0,0,0,
bsp,160,R,true,1071,2,1,0,1,1,
bsp,161,R,false,1536,2,1,1,0,1,
bsp,162,R,true,1664,2,0,0,0,1,
bsp,163,R,false,1904,2,0,1,1,0,
bsp,164,R,true,2879,2,0,1,1,0,
bsp,165,R,true,2286,2,1,1,1,1,
bsp,166,R,true,1700,1,1,0,1,1,
bsp,167,R,true,1900,2,1,0,1,1,
bsp,168,R,true,3837,1,0,0,1,1,
bsp,169,R,true,2033,1,1,0,1,1,
bsp,170,R,true,1550,1,0,0,1,1,
bsp,171,R,true,1772,1,0,1,1,1,
bsp,172,R,true,1952,1,1,0,1,0,
bsp,173,R,true,1665,1,1,1,1,1,
bsp,174,R,true,2112,2,0,0,1,1,
bsp,175,R,false,1119,2,1,1,0,0,
bsp,176,R,false,1581,1,1,0,0,0,
bsp,177,R,false,2045,1,0,0,1,1,
bsp,178,R,true,2480,2,0,0,1,1,
bsp,179,R,true,916,1,1,1,1,1,
bsp,180,R,false,1916,1,1,1,0,1,
brk,brk,brk,brk,brk,brk,brk,brk,brk,brk,
bsp,181,R,true,5076,1,1,1,1,1,
bsp,182,R,true,1699,2,0,1,1,1,
bsp,183,R,true,2379,1,0,1,0,1,
bsp,184,R,false,1021,1,0,1,0,0,
bsp,185,R,true,639,2,1,0,1,1,
bsp,186,R,true,1825,1,1,0,1,1,
bsp,187,R,true,3104,2,0,1,1,1,
bsp,188,R,true,1820,1,1,1,1,1,
bsp,189,R,true,1715,2,1,1,0,1,
bsp,190,R,true,3068,2,0,0,1,0,
bsp,191,R,true,845,2,1,1,1,1,
bsp,192,R,true,2112,1,1,0,0,1,
bsp,193,R,true,1664,2,1,0,1,0,
bsp,194,R,false,899,1,0,0,0,0,
bsp,195,R,true,987,2,0,0,1,1,
bsp,196,R,true,931,2,0,1,0,1,
bsp,197,R,true,1533,1,1,0,1,0,
bsp,198,R,true,1421,1,1,0,1,0,
bsp,199,R,true,912,2,0,1,1,1,
bsp,200,R,true,833,1,1,1,1,1,
bsp,201,R,true,1230,1,0,0,1,1,
bsp,202,R,true,1058,1,0,0,1,1,
bsp,203,R,true,1742,2,1,1,1,1,
bsp,204,R,true,2352,1,0,0,0,1,
bsp,205,R,false,1391,1,0,1,1,1,
bsp,206,R,true,1599,2,0,0,1,1,
bsp,207,R,true,1580,1,0,1,1,1,
bsp,208,R,false,1965,1,0,0,0,1,
bsp,209,R,false,1295,1,1,0,1,0,
bsp,210,R,true,1488,2,1,0,1,1,
bsp,211,R,true,1664,2,0,1,1,1,
bsp,212,R,false,529,1,1,0,1,1,
bsp,213,R,true,670,2,1,1,1,1,
bsp,214,R,false,816,1,1,0,0,1,
bsp,215,R,false,832,1,0,1,1,0,
bsp,216,R,true,1135,1,0,1,0,1,
bsp,217,R,true,1009,2,0,1,1,1,
bsp,218,R,true,1425,2,0,0,1,1,
bsp,219,R,true,3404,2,0,1,1,1,
bsp,220,R,false,1601,2,1,1,0,1,
bsp,221,R,true,544,1,1,0,1,0,
bsp,222,R,true,357,1,1,0,0,1,
bsp,223,R,false,845,2,1,1,0,1,
bsp,224,R,true,977,1,0,0,1,0,
bsp,225,R,false,1984,2,1,0,1,0,
bsp,226,R,true,1007,1,0,0,1,0,
bsp,227,R,true,959,2,0,1,1,1,
bsp,228,R,false,249,2,0,1,1,1,
bsp,229,R,true,816,1,0,0,1,0,
bsp,230,R,true,1201,1,0,1,1,1,
bsp,231,R,false,1537,2,0,1,0,0,
bsp,232,R,true,1408,1,1,0,1,1,
bsp,233,R,true,1682,2,0,1,1,1,
bsp,234,R,true,1105,1,1,1,1,1,
bsp,235,R,false,1648,1,1,0,0,1,
bsp,236,R,false,1010,2,1,0,0,0,
bsp,237,R,true,909,1,1,0,1,0,
bsp,238,R,true,991,1,0,1,1,1,
bsp,239,R,true,1212,2,1,0,1,0,
bsp,240,R,false,1042,1,1,1,0,0,
bsp,241,R,true,1120,2,0,1,1,1,
bsp,242,R,true,2001,1,1,1,1,0,
bsp,243,R,true,1488,1,1,1,1,1,
bsp,244,R,true,1026,2,0,1,1,1,
bsp,245,R,true,1201,2,1,1,1,1,
bsp,246,R,true,865,1,1,0,1,1,
bsp,247,R,false,1696,2,1,1,0,1,
bsp,248,R,false,1249,2,1,0,0,1,
bsp,249,R,true,908,1,0,0,1,1,
bsp,250,R,false,1136,1,1,0,1,0,
bsp,251,R,true,1633,1,1,1,0,1,
bsp,252,R,false,1198,2,0,0,1,1,
bsp,253,R,false,1600,1,0,1,1,0,
bsp,254,R,false,1422,1,1,1,0,0,
bsp,255,R,false,1232,2,0,0,1,0,
bsp,256,R,true,750,2,1,1,1,1,
bsp,257,R,false,1058,2,1,1,0,1,
bsp,258,R,true,1788,2,1,0,1,0,
bsp,259,R,true,2672,1,1,1,1,0,
bsp,260,R,false,1697,2,0,1,1,0,
bsp,261,R,false,3619,2,1,1,0,1,
bsp,262,R,false,1083,2,1,1,1,0,
bsp,263,R,true,1134,1,1,1,1,1,
bsp,264,R,true,1683,2,1,0,1,1,
bsp,265,R,true,4235,2,1,1,1,1,
bsp,266,R,false,1198,1,0,1,1,0,
bsp,267,R,true,987,1,1,1,1,1,
bsp,268,R,true,2304,1,0,1,0,1,
bsp,269,R,true,1796,2,0,1,1,1,
bsp,270,R,true,1499,1,0,0,1,1,
brk,brk,brk,brk,brk,brk,brk,brk,brk,brk,
bsp,271,R,false,3570,2,0,0,0,1,
bsp,272,R,true,1552,2,1,0,1,1,
bsp,273,R,true,1391,1,1,0,0,1,
bsp,274,R,true,1055,2,1,1,1,1,
bsp,275,R,false,1007,2,0,0,0,0,
bsp,276,R,false,1420,2,1,1,0,1,
bsp,277,R,false,1551,1,0,1,0,1,
bsp,278,R,true,1392,2,0,1,1,1,
bsp,279,R,true,1103,1,1,0,1,1,
bsp,280,R,true,993,1,0,0,1,1,
bsp,281,R,true,1552,1,0,1,1,1,
bsp,282,R,false,2192,2,0,0,1,0,
bsp,283,R,true,862,2,1,1,1,1,
bsp,284,R,true,1134,2,1,1,1,1,
bsp,285,R,true,734,2,1,1,1,1,
bsp,286,R,false,4784,1,1,1,1,0,
bsp,287,R,true,1120,2,1,0,1,1,
bsp,288,R,true,1308,1,1,0,1,0,
bsp,289,R,false,1168,2,0,0,0,1,
bsp,290,R,true,1071,1,1,0,1,1,
bsp,291,R,true,3087,1,1,1,0,1,
bsp,292,R,true,3261,2,0,1,1,1,
bsp,293,R,true,1312,2,1,0,1,0,
bsp,294,R,true,5600,2,0,0,1,0,
bsp,295,R,true,1347,2,0,1,1,1,
bsp,296,R,false,1340,2,1,0,1,0,
bsp,297,R,true,2014,1,0,0,1,0,
bsp,298,R,true,3649,1,0,0,0,1,
bsp,299,R,true,1437,2,0,0,1,1,
bsp,300,R,true,1456,2,0,1,1,1,
bsp,301,R,true,1727,1,1,1,1,1,
bsp,302,R,false,1920,1,0,0,1,0,
bsp,303,R,false,1969,1,0,1,1,0,
bsp,304,R,true,975,2,0,1,1,1,
bsp,305,R,true,1075,1,1,1,1,0,
bsp,306,R,true,1355,1,0,0,1,0,
bsp,307,R,true,1312,2,0,1,1,1,
bsp,308,R,true,866,2,0,1,1,1,
bsp,309,R,false,955,1,0,1,1,1,
bsp,310,R,true,1056,1,1,1,1,1,
bsp,311,R,true,859,1,1,0,1,1,
bsp,312,R,false,1579,1,0,1,0,1,
bsp,313,R,true,1694,2,0,0,1,1,
bsp,314,R,true,991,1,1,0,1,1,
bsp,315,R,true,2284,1,0,1,0,1,
bsp,316,R,true,1023,2,1,1,1,1,
bsp,317,R,false,2543,2,1,0,1,0,
bsp,318,R,true,1199,1,0,0,1,1,
bsp,319,R,true,3565,2,0,1,1,1,
bsp,320,R,true,1137,1,1,1,1,1,
bsp,321,R,true,1616,2,0,0,1,1,
bsp,322,R,true,3105,1,1,1,1,0,
bsp,323,R,false,1200,2,1,0,0,0,
bsp,324,R,true,768,2,1,1,1,1,
bsp,325,R,true,3040,1,1,1,1,1,
bsp,326,R,true,1725,2,0,1,0,1,
bsp,327,R,true,990,1,0,0,1,1,
bsp,328,R,true,1295,2,0,1,1,1,
bsp,329,R,true,1698,2,1,0,1,1,
bsp,330,R,true,1627,2,1,0,1,1,
bsp,331,R,true,4178,1,1,1,1,1,
bsp,332,R,true,4909,2,0,1,1,1,
bsp,333,R,true,1232,2,0,1,1,1,
bsp,334,R,false,1315,1,0,1,0,0,
bsp,335,R,true,1403,2,0,1,1,1,
bsp,336,R,true,1406,1,0,0,1,1,
bsp,337,R,true,1458,2,0,1,1,1,
bsp,338,R,true,7669,2,1,1,0,1,
bsp,339,R,false,1472,1,0,0,0,0,
bsp,340,R,true,2192,1,1,1,1,0,
bsp,341,R,true,1757,1,0,1,1,1,
bsp,342,R,true,1408,2,1,1,1,1,
bsp,343,R,true,1248,2,1,1,1,1,
bsp,344,R,false,1245,1,1,1,0,0,
bsp,345,R,true,1198,2,1,1,1,1,
bsp,346,R,true,831,1,0,0,1,1,
bsp,347,R,true,1951,2,0,0,1,0,
bsp,348,R,true,1887,2,1,0,1,1,
bsp,349,R,true,1488,2,0,1,0,1,
bsp,350,R,true,1854,2,1,1,1,1,
bsp,351,R,false,1440,2,1,0,1,0,
bsp,352,R,false,1741,1,0,1,1,0,
bsp,353,R,true,1183,2,1,1,1,1,
bsp,354,R,false,1070,2,1,1,0,1,
bsp,355,R,true,1007,1,1,1,1,1,
bsp,356,R,true,829,2,1,1,1,1,
bsp,357,R,true,1821,1,0,0,1,0,
bsp,358,R,true,1185,2,0,0,1,1,
bsp,359,R,true,2097,2,1,1,1,0,
bsp,360,R,true,925,2,0,1,1,1,
brk,brk,brk,brk,brk,brk,brk,brk,brk,brk,
bsp,361,R,true,7522,1,0,1,0,1,
bsp,362,R,true,1069,1,1,1,1,1,
bsp,363,R,true,1199,1,1,0,1,1,
bsp,364,R,true,1759,2,0,1,1,1,
bsp,365,R,true,1118,1,1,1,1,1,
bsp,366,R,false,1664,1,0,0,0,1,
bsp,367,R,true,1616,2,1,0,1,1,
bsp,368,R,true,1770,1,1,1,1,1,
bsp,369,R,false,975,1,1,1,0,0,
bsp,370,R,true,1697,1,1,0,1,0,
bsp,371,R,true,3262,1,0,0,1,0,
bsp,372,R,true,2334,1,0,1,0,1,
bsp,373,R,true,1006,2,0,0,1,1,
bsp,374,R,false,1580,1,1,1,0,0,
bsp,375,R,false,1936,1,1,0,0,0,
bsp,376,R,true,1261,1,0,0,1,1,
bsp,377,R,true,2866,1,0,0,1,0,
bsp,378,R,true,1819,2,0,1,0,1,
bsp,379,R,false,2112,1,0,0,0,1,
bsp,380,R,true,1184,2,1,1,1,1,
bsp,381,R,true,1340,1,0,1,0,1,
bsp,382,R,true,1023,2,0,0,1,1,
bsp,383,R,false,1090,2,1,0,0,1,
bsp,384,R,true,860,2,1,1,1,1,
bsp,385,R,true,1585,2,0,1,1,1,
bsp,386,R,true,1216,1,1,0,0,1,
bsp,387,R,true,1359,1,1,1,1,1,
bsp,388,R,true,1918,1,1,1,1,0,
bsp,389,R,true,1250,2,0,0,1,1,
bsp,390,R,true,1644,1,1,1,1,1,
bsp,391,R,false,1469,1,0,0,0,0,
bsp,392,R,true,988,2,0,0,1,1,
bsp,393,R,true,1503,1,1,0,1,1,
bsp,394,R,true,1503,2,0,0,0,1,
bsp,395,R,true,1280,2,1,1,1,1,
bsp,396,R,true,1598,1,0,1,1,1,
bsp,397,R,false,1262,2,0,0,0,0,
bsp,398,R,true,1007,2,0,0,1,1,
bsp,399,R,false,1742,1,1,0,0,1,
bsp,400,R,true,1822,2,0,1,1,1,
bsp,401,R,true,1696,2,1,1,0,1,
bsp,402,R,true,1266,2,1,0,1,0,
bsp,403,R,false,1594,1,1,0,0,1,
bsp,404,R,false,1679,1,0,1,0,0,
bsp,405,R,true,1600,1,1,1,1,1,
bsp,406,R,false,3759,2,1,1,1,0,
bsp,407,R,false,961,1,0,0,0,0,
bsp,408,R,true,1454,2,1,0,1,1,
bsp,409,R,true,2302,1,1,0,1,1,
bsp,410,R,true,1792,1,0,1,1,1,
bsp,411,R,true,2735,2,1,0,1,1,
bsp,412,R,true,6716,2,0,1,1,1,
bsp,413,R,true,4606,2,0,1,1,1,
bsp,414,R,true,1723,2,0,1,1,1,
bsp,415,R,true,1180,2,1,1,1,1,
bsp,416,R,false,2271,2,1,0,0,1,
bsp,417,R,true,1584,1,1,0,1,0,
bsp,418,R,true,1409,2,0,0,0,1,
bsp,419,R,false,1404,1,0,0,1,0,
bsp,420,R,false,1053,2,0,0,0,1,
bsp,421,R,false,1408,2,1,1,0,1,
bsp,422,R,false,782,2,1,0,0,1,
bsp,423,R,false,877,1,1,0,0,1,
bsp,424,R,true,992,1,0,0,1,1,
bsp,425,R,true,1343,2,0,0,0,1,
bsp,426,R,false,2513,1,0,0,0,1,
bsp,427,R,false,963,1,0,0,1,0,
bsp,428,R,true,1052,2,1,0,0,0,
bsp,429,R,false,1743,2,0,0,0,0,
bsp,430,R,false,1600,1,0,1,0,0,
bsp,431,R,true,1152,1,0,0,1,1,
bsp,432,R,false,2591,2,1,0,0,1,
bsp,433,R,false,865,2,1,0,0,0,
bsp,434,R,true,1610,1,1,1,0,1,
bsp,435,R,true,1199,2,1,1,1,1,
bsp,436,R,false,2210,2,0,1,1,0,
bsp,437,R,true,1532,2,0,1,1,0,
bsp,438,R,true,3069,1,1,1,1,1,
bsp,439,R,true,3133,2,0,0,1,1,
bsp,440,R,false,1390,2,1,0,0,0,
bsp,441,R,false,1167,2,1,0,0,1,
bsp,442,R,true,941,2,0,0,1,1,
bsp,443,R,true,735,1,1,0,1,1,
bsp,444,R,true,688,2,0,1,0,1,
bsp,445,R,true,910,1,1,1,1,1,
bsp,446,R,true,1264,2,0,1,1,1,
bsp,447,R,false,1516,2,0,0,1,0,
bsp,448,R,true,1037,1,0,0,1,1,
bsp,449,R,true,1119,2,1,1,0,1,
bsp,450,R,false,1150,1,0,1,1,0,
subID,trialNum,cntBalance,correct,rt,winner,p1conf,p2conf,p1rslt,p2rslt,
ht1,1,R,false,4621,2,1,0,1,1,
ht1,2,R,false,6186,2,1,0,1,0,
ht1,3,R,false,2955,2,1,0,1,0,
ht1,4,R,true,6830,2,0,1,1,1,
ht1,5,R,false,6413,2,1,1,1,0,
ht1,6,R,true,5262,2,1,1,1,0,
ht1,7,R,true,3871,2,1,0,1,1,
ht1,8,R,true,4330,1,0,0,1,1,
ht1,9,R,true,4499,2,0,1,1,1,
ht1,10,R,true,5038,1,0,1,1,1,
ht1,11,R,true,4319,2,0,0,1,1,
ht1,12,R,true,4541,2,0,0,1,0,
ht1,13,R,true,3823,2,1,0,1,1,
ht1,14,R,true,1950,2,1,1,1,1,
ht1,15,R,true,2381,2,0,1,1,1,
ht1,16,R,true,3118,2,1,1,1,1,
ht1,17,R,true,2301,2,1,1,1,1,
ht1,18,R,false,2013,2,0,0,0,1,
ht1,19,R,true,3776,1,1,1,1,1,
ht1,20,R,true,2842,2,0,1,0,1,
ht1,21,R,true,1600,1,1,0,1,1,
ht1,22,R,true,3904,2,1,0,1,1,
ht1,23,R,false,2144,1,0,0,0,1,
ht1,24,R,false,2795,2,1,0,0,1,
ht1,25,R,true,2766,1,1,0,1,0,
ht1,26,R,true,1485,2,1,1,1,1,
ht1,27,R,true,1391,2,1,1,1,1,
ht1,28,R,false,1134,2,1,1,0,0,
ht1,29,R,true,2367,2,1,1,1,1,
ht1,30,R,true,1950,2,1,1,1,1,
ht1,31,R,true,4430,1,1,1,1,1,
ht1,32,R,false,1861,1,1,0,0,0,
ht1,33,R,false,2202,1,1,0,0,1,
ht1,34,R,false,7296,1,0,0,1,0,
ht1,35,R,true,5278,2,0,0,1,0,
ht1,36,R,true,6078,1,0,0,0,1,
ht1,37,R,true,2684,2,0,1,1,1,
ht1,38,R,true,3070,1,0,1,0,1,
ht1,39,R,false,4241,1,1,0,0,1,
ht1,40,R,true,1696,1,0,1,1,1,
ht1,41,R,false,2736,1,0,0,1,0,
ht1,42,R,true,3263,1,0,0,1,0,
ht1,43,R,false,7357,1,0,0,0,1,
ht1,44,R,true,5392,1,1,1,1,0,
ht1,45,R,true,1601,1,0,0,1,0,
ht1,46,R,true,2417,1,0,0,1,0,
ht1,47,R,false,4736,1,0,1,1,0,
ht1,48,R,true,4554,2,0,1,0,1,
ht1,49,R,true,2819,2,0,1,1,1,
ht1,50,R,true,1259,2,0,1,1,1,
ht1,51,R,true,1312,1,1,1,1,1,
ht1,52,R,true,1392,1,1,1,0,1,
ht1,53,R,true,1983,2,1,0,1,1,
ht1,54,R,false,1860,2,0,1,0,0,
ht1,55,R,true,3534,1,1,1,1,0,
ht1,56,R,true,1333,1,0,0,1,1,
ht1,57,R,true,2129,1,0,1,1,0,
ht1,58,R,true,1598,1,0,0,1,0,
ht1,59,R,true,1642,2,0,0,1,0,
ht1,60,R,true,1087,2,0,0,1,1,
ht1,61,R,false,1169,1,1,1,0,0,
ht1,62,R,true,2475,1,1,0,1,1,
ht1,63,R,true,1598,1,0,0,1,1,
ht1,64,R,false,1779,2,1,1,0,1,
ht1,65,R,true,1499,1,0,1,1,1,
ht1,66,R,true,3805,1,0,1,1,1,
ht1,67,R,true,2542,1,1,0,1,0,
ht1,68,R,false,2494,1,0,1,0,0,
ht1,69,R,false,1422,1,1,0,0,1,
ht1,70,R,true,3650,1,0,0,1,1,
ht1,71,R,false,4495,1,1,1,0,1,
ht1,72,R,false,1296,2,0,0,0,0,
ht1,73,R,true,3869,2,0,0,1,1,
ht1,74,R,true,6750,1,0,0,1,1,
ht1,75,R,true,2018,1,1,1,1,0,
ht1,76,R,false,2768,2,1,1,1,0,
ht1,77,R,false,3404,1,0,1,1,1,
ht1,78,R,false,2450,2,0,1,1,1,
ht1,79,R,false,2907,2,0,1,0,0,
ht1,80,R,false,2513,1,1,0,0,1,
ht1,81,R,true,1601,2,0,1,1,1,
ht1,82,R,false,1578,2,0,1,0,0,
ht1,83,R,true,1312,1,0,0,1,1,
ht1,84,R,true,1549,1,1,0,1,0,
ht1,85,R,true,2366,2,0,0,1,1,
ht1,86,R,true,1951,2,1,0,1,1,
ht1,87,R,true,2172,1,1,1,0,1,
ht1,88,R,false,1887,1,0,1,0,0,
ht1,89,R,true,3723,2,1,0,1,0,
ht1,90,R,false,5547,2,0,0,0,1,
ht1,91,R,true,2367,1,0,0,1,1,
ht1,92,R,true,1134,1,1,0,1,0,
ht1,93,R,true,1470,1,0,1,1,1,
ht1,94,R,false,2448,1,0,1,1,0,
ht1,95,R,true,2030,2,0,1,0,1,
ht1,96,R,true,3701,2,0,0,1,1,
ht1,97,R,true,1920,1,0,0,0,1,
ht1,98,R,true,1486,1,0,0,1,1,
ht1,99,R,true,3201,1,1,1,1,1,
ht1,100,R,false,11504,1,0,0,0,0,
brk,brk,brk,brk,brk,brk,brk,brk,brk,brk,
ht1,101,R,true,20487,2,0,0,1,1,
ht1,102,R,true,1202,1,1,1,1,1,
ht1,103,R,true,1373,2,1,0,1,0,
ht1,104,R,true,1296,1,1,0,1,1,
ht1,105,R,true,1498,2,1,0,1,1,
ht1,106,R,true,1442,1,0,0,0,1,
ht1,107,R,false,1566,2,1,0,0,1,
ht1,108,R,true,1818,1,0,1,0,1,
ht1,109,R,true,2303,1,1,1,1,0,
ht1,110,R,false,1998,2,1,0,0,0,
ht1,111,R,true,1550,1,0,1,1,1,
ht1,112,R,true,1633,2,0,0,1,1,
ht1,113,R,false,940,1,1,1,0,1,
ht1,114,R,true,1426,2,1,1,1,1,
ht1,115,R,true,1675,1,0,1,1,1,
ht1,116,R,false,1443,2,1,0,0,1,
ht1,117,R,true,1307,2,1,1,1,1,
ht1,118,R,true,1278,2,0,1,1,1,
ht1,119,R,false,1118,1,1,0,0,0,
ht1,120,R,true,1117,2,0,1,1,1,
ht1,121,R,true,942,1,1,0,1,1,
ht1,122,R,true,1487,1,1,0,1,0,
ht1,123,R,true,1630,2,0,0,1,1,
ht1,124,R,true,1551,1,1,1,1,1,
ht1,125,R,true,1667,2,0,0,1,1,
ht1,126,R,true,1900,2,1,0,1,1,
ht1,127,R,true,877,1,1,0,1,1,
ht1,128,R,false,1056,2,1,1,0,0,
ht1,129,R,true,1165,1,1,0,1,0,
ht1,130,R,true,1917,1,1,1,0,1,
ht1,131,R,true,2801,2,1,0,1,0,
ht1,132,R,true,1499,1,1,0,1,0,
ht1,133,R,true,1470,1,0,1,1,1,
ht1,134,R,true,1552,1,1,0,1,1,
ht1,135,R,false,1346,2,0,1,0,0,
ht1,136,R,false,1099,1,0,1,1,0,
ht1,137,R,true,1758,1,0,1,1,1,
ht1,138,R,true,1092,1,1,0,1,0,
ht1,139,R,true,1306,1,0,0,1,1,
ht1,140,R,true,1810,1,0,0,1,0,
ht1,141,R,true,1377,2,1,0,1,1,
ht1,142,R,false,1488,2,0,0,0,0,
ht1,143,R,true,1009,1,0,0,1,1,
ht1,144,R,true,1243,2,1,0,1,0,
ht1,145,R,false,1215,2,1,1,0,1,
ht1,146,R,true,2352,1,1,1,1,1,
ht1,147,R,false,1071,1,0,1,0,0,
ht1,148,R,false,1436,1,1,0,0,0,
ht1,149,R,true,1711,1,0,1,1,1,
ht1,150,R,true,1247,1,0,1,1,1,
ht1,151,R,true,1647,1,0,1,0,1,
ht1,152,R,true,1072,1,0,0,1,1,
ht1,153,R,false,1615,2,1,1,1,0,
ht1,154,R,true,1424,1,1,1,1,1,
ht1,155,R,false,1489,2,0,0,1,1,
ht1,156,R,false,1759,1,0,1,1,0,
ht1,157,R,true,1181,1,0,1,1,1,
ht1,158,R,false,1104,2,1,1,0,1,
ht1,159,R,false,1217,2,0,0,0,1,
ht1,160,R,true,1099,2,1,1,1,1,
ht1,161,R,true,1058,1,0,1,1,1,
ht1,162,R,true,1900,2,0,0,1,1,
ht1,163,R,false,1422,1,1,0,0,1,
ht1,164,R,true,2530,2,0,0,1,1,
ht1,165,R,true,1436,2,0,0,1,1,
ht1,166,R,true,1839,1,1,0,0,1,
ht1,167,R,true,1663,2,0,0,1,1,
ht1,168,R,true,1056,1,1,1,1,1,
ht1,169,R,true,1278,1,0,1,1,1,
ht1,170,R,true,1120,1,1,1,1,1,
ht1,171,R,false,1805,2,0,0,1,0,
ht1,172,R,true,1760,1,0,1,1,1,
ht1,173,R,true,1825,1,1,1,0,1,
ht1,174,R,true,1536,1,0,1,0,1,
ht1,175,R,true,1632,1,0,1,1,1,
ht1,176,R,true,1950,1,0,0,0,1,
ht1,177,R,true,1294,1,0,1,1,1,
ht1,178,R,true,1440,2,1,0,1,1,
ht1,179,R,false,927,2,0,1,0,0,
ht1,180,R,false,1950,2,1,1,1,0,
ht1,181,R,true,1394,1,0,1,1,1,
ht1,182,R,false,1711,1,0,0,0,0,
ht1,183,R,true,960,1,1,0,1,1,
ht1,184,R,true,1183,1,0,1,1,1,
ht1,185,R,false,1265,2,0,0,0,1,
ht1,186,R,false,1341,1,0,0,0,0,
ht1,187,R,true,5357,1,0,0,1,0,
ht1,188,R,true,1103,1,1,0,1,0,
ht1,189,R,false,1200,2,0,0,1,1,
ht1,190,R,true,1520,1,0,0,1,1,
ht1,191,R,true,1393,1,1,0,1,0,
ht1,192,R,true,1371,2,0,0,1,1,
ht1,193,R,true,1968,2,0,1,1,1,
ht1,194,R,true,2000,2,1,1,1,1,
ht1,195,R,true,1871,2,0,1,1,1,
ht1,196,R,true,2000,2,1,0,1,1,
ht1,197,R,true,1454,2,0,1,1,1,
ht1,198,R,false,1327,2,1,1,0,0,
ht1,199,R,true,1120,1,0,1,1,1,
ht1,200,R,true,1297,1,0,1,1,1,
brk,brk,brk,brk,brk,brk,brk,brk,brk,brk,
ht1,201,R,true,2953,1,1,1,1,1,
ht1,202,R,false,2493,2,1,1,0,1,
ht1,203,R,true,1718,2,1,1,1,1,
ht1,204,R,true,1379,2,0,1,1,1,
ht1,205,R,true,1231,2,1,1,1,1,
ht1,206,R,false,1167,1,0,1,0,0,
ht1,207,R,true,1519,2,1,0,1,0,
ht1,208,R,true,768,1,1,0,1,1,
ht1,209,R,false,1153,1,1,0,0,1,
ht1,210,R,true,1010,2,0,0,1,1,
ht1,211,R,true,1727,2,1,0,1,1,
ht1,212,R,false,1154,2,0,1,1,0,
ht1,213,R,true,1024,2,1,0,1,0,
ht1,214,R,true,1983,2,1,1,1,1,
ht1,215,R,true,4269,1,0,0,1,0,
ht1,216,R,true,2126,2,0,1,1,1,
ht1,217,R,true,1249,2,1,0,1,1,
ht1,218,R,true,1086,1,0,0,1,1,
ht1,219,R,false,1322,1,1,1,0,1,
ht1,220,R,true,3698,2,1,0,1,0,
ht1,221,R,true,780,1,0,0,1,1,
ht1,222,R,true,1346,1,1,0,1,1,
ht1,223,R,true,1200,2,0,0,1,1,
ht1,224,R,false,863,1,0,1,0,0,
ht1,225,R,false,1855,1,0,0,0,0,
ht1,226,R,true,1999,1,0,0,1,0,
ht1,227,R,true,1569,1,1,1,1,1,
ht1,228,R,true,976,2,1,1,1,1,
ht1,229,R,true,1041,2,1,1,1,1,
ht1,230,R,true,1662,2,1,0,1,1,
ht1,231,R,true,811,2,1,1,1,1,
ht1,232,R,true,1124,1,1,1,1,1,
ht1,233,R,false,1178,1,0,1,0,0,
ht1,234,R,true,1200,1,1,0,1,1,
ht1,235,R,true,1584,2,0,1,1,1,
ht1,236,R,true,1007,2,1,1,1,1,
ht1,237,R,true,1054,2,1,1,1,1,
ht1,238,R,true,1054,2,1,0,1,0,
ht1,239,R,false,943,1,1,1,0,1,
ht1,240,R,true,1168,2,0,1,1,1,
ht1,241,R,true,876,1,0,0,1,1,
ht1,242,R,true,1902,1,1,1,0,1,
ht1,243,R,true,1088,1,1,1,1,1,
ht1,244,R,true,1329,1,0,0,1,1,
ht1,245,R,false,1452,2,1,1,0,1,
ht1,246,R,true,2432,2,1,0,1,1,
ht1,247,R,false,939,2,0,0,1,0,
ht1,248,R,false,1502,2,0,0,0,0,
ht1,249,R,true,1531,2,1,0,1,1,
ht1,250,R,true,844,1,1,0,1,1,
ht1,251,R,true,889,2,1,0,1,0,
ht1,252,R,false,1296,1,1,0,0,0,
ht1,253,R,true,926,1,0,0,1,1,
ht1,254,R,true,1408,1,0,1,0,1,
ht1,255,R,false,1708,2,1,1,0,1,
ht1,256,R,true,1583,1,0,1,1,1,
ht1,257,R,true,1485,1,0,0,0,1,
ht1,258,R,true,1552,2,0,0,1,1,
ht1,259,R,true,1756,2,0,0,1,1,
ht1,260,R,true,1615,1,0,1,1,1,
ht1,261,R,false,2288,1,1,0,0,0,
ht1,262,R,true,2274,1,1,1,0,1,
ht1,263,R,true,1309,2,1,1,1,1,
ht1,264,R,false,2287,1,1,1,1,0,
ht1,265,R,false,1422,2,1,0,0,0,
ht1,266,R,true,2159,2,1,0,1,1,
ht1,267,R,true,1853,2,0,0,0,1,
ht1,268,R,false,1316,1,0,1,1,0,
ht1,269,R,true,859,1,1,0,1,1,
ht1,270,R,true,961,1,1,1,1,1,
ht1,271,R,false,1215,2,1,1,0,1,
ht1,272,R,true,2434,1,1,1,1,0,
ht1,273,R,true,876,1,1,1,1,1,
ht1,274,R,false,1216,2,0,0,1,0,
ht1,275,R,true,975,1,0,0,1,1,
ht1,276,R,true,1102,1,0,1,1,1,
ht1,277,R,false,2350,2,1,1,1,0,
ht1,278,R,true,1215,1,1,1,1,1,
ht1,279,R,false,1039,1,1,1,0,1,
ht1,280,R,true,2928,2,1,1,0,1,
ht1,281,R,true,1228,2,1,1,0,1,
ht1,282,R,false,1328,2,1,0,0,0,
ht1,283,R,false,1440,2,0,1,1,0,
ht1,284,R,true,1425,2,0,0,1,1,
ht1,285,R,true,1053,2,1,1,1,1,
ht1,286,R,true,1247,1,0,1,1,1,
ht1,287,R,true,1055,2,0,1,0,1,
ht1,288,R,true,860,2,0,1,0,1,
ht1,289,R,true,1535,2,1,1,0,1,
ht1,290,R,true,912,2,0,1,1,1,
ht1,291,R,true,799,2,1,1,1,1,
ht1,292,R,true,1200,1,1,1,1,1,
ht1,293,R,true,1291,1,0,0,1,1,
ht1,294,R,true,847,1,0,1,1,1,
ht1,295,R,true,1840,2,0,1,0,1,
ht1,296,R,false,1168,1,0,1,1,0,
ht1,297,R,true,1376,2,0,0,1,1,
ht1,298,R,false,1550,1,0,0,0,1,
ht1,299,R,true,1568,2,1,1,1,1,
ht1,300,R,true,1024,2,1,1,1,1,
brk,brk,brk,brk,brk,brk,brk,brk,brk,brk,
ht1,301,R,false,11280,2,0,0,1,0,
ht1,302,R,true,1309,2,1,0,1,0,
ht1,303,R,true,1231,2,1,0,1,1,
ht1,304,R,true,1791,2,0,0,0,1,
ht1,305,R,true,1211,2,0,1,1,1,
ht1,306,R,false,972,1,0,0,1,0,
ht1,307,R,true,2544,1,0,1,1,1,
ht1,308,R,false,2975,1,0,1,1,0,
ht1,309,R,true,2591,1,0,0,1,1,
ht1,310,R,true,1776,2,1,0,1,1,
ht1,311,R,true,1115,2,0,0,1,1,
ht1,312,R,true,2417,2,0,0,1,1,
ht1,313,R,true,1083,1,1,0,1,0,
ht1,314,R,true,1215,2,1,1,1,1,
ht1,315,R,false,2205,1,0,0,0,1,
ht1,316,R,true,1102,2,1,1,1,1,
ht1,317,R,true,1375,1,0,0,1,0,
ht1,318,R,true,1020,2,0,1,1,1,
ht1,319,R,true,1712,2,1,0,1,1,
ht1,320,R,true,1484,2,1,0,1,0,
ht1,321,R,true,974,1,1,0,1,0,
ht1,322,R,true,1089,1,0,1,1,1,
ht1,323,R,true,891,2,1,1,1,1,
ht1,324,R,true,879,2,1,1,1,1,
ht1,325,R,true,1279,2,0,1,1,1,
ht1,326,R,false,1342,1,0,0,0,0,
ht1,327,R,false,817,2,0,0,0,0,
ht1,328,R,true,1471,1,1,0,1,0,
ht1,329,R,true,1068,1,1,0,1,1,
ht1,330,R,true,1149,1,0,1,1,1,
ht1,331,R,true,1216,2,0,1,1,1,
ht1,332,R,true,956,2,1,0,1,1,
ht1,333,R,true,3244,1,1,1,0,1,
ht1,334,R,true,1023,2,1,1,1,1,
ht1,335,R,true,943,1,1,0,1,0,
ht1,336,R,false,990,2,0,1,0,0,
ht1,337,R,true,1966,1,0,0,1,1,
ht1,338,R,true,1998,1,1,0,1,1,
ht1,339,R,true,876,1,0,1,1,1,
ht1,340,R,true,866,1,1,0,1,1,
ht1,341,R,false,1916,2,1,1,0,1,
ht1,342,R,false,2238,2,1,1,1,0,
ht1,343,R,true,1504,2,1,0,1,0,
ht1,344,R,true,717,2,0,1,1,1,
ht1,345,R,true,4353,2,0,0,1,0,
ht1,346,R,true,861,1,1,0,1,1,
ht1,347,R,false,1552,2,1,1,1,0,
ht1,348,R,false,915,1,1,0,0,0,
ht1,349,R,true,1372,2,1,0,1,0,
ht1,350,R,true,1086,1,1,1,1,0,
ht1,351,R,true,1583,2,1,1,1,0,
ht1,352,R,true,1247,2,1,1,1,1,
ht1,353,R,false,895,1,0,1,1,0,
ht1,354,R,true,991,1,0,1,1,1,
ht1,355,R,false,799,2,1,0,0,1,
ht1,356,R,true,1182,1,0,1,0,1,
ht1,357,R,true,845,1,0,0,1,1,
ht1,358,R,false,750,2,0,0,0,0,
ht1,359,R,true,783,1,1,1,1,1,
ht1,360,R,true,1183,2,1,1,1,1,
ht1,361,R,true,1134,1,1,1,1,0,
ht1,362,R,true,2844,2,1,0,1,0,
ht1,363,R,true,1310,1,1,1,1,1,
ht1,364,R,true,992,1,0,0,1,1,
ht1,365,R,true,929,2,0,0,1,1,
ht1,366,R,false,1419,2,0,1,1,0,
ht1,367,R,true,782,2,0,1,0,1,
ht1,368,R,true,767,1,0,1,1,1,
ht1,369,R,true,768,2,1,1,1,1,
ht1,370,R,false,897,2,0,0,0,0,
ht1,371,R,false,941,2,0,0,1,0,
ht1,372,R,true,847,1,1,0,1,0,
ht1,373,R,true,798,2,1,0,1,1,
ht1,374,R,true,912,1,1,1,1,1,
ht1,375,R,true,1119,2,0,0,1,0,
ht1,376,R,false,991,2,0,0,1,1,
ht1,377,R,true,751,1,1,0,1,0,
ht1,378,R,true,1184,2,1,0,1,1,
ht1,379,R,true,1019,1,1,1,1,1,
ht1,380,R,true,1022,1,0,0,1,0,
ht1,381,R,true,1809,2,0,1,1,1,
ht1,382,R,false,1165,2,0,0,0,1,
ht1,383,R,false,1386,2,1,0,0,1,
ht1,384,R,true,1503,2,1,0,1,1,
ht1,385,R,true,812,2,1,0,1,1,
ht1,386,R,true,962,1,1,1,1,1,
ht1,387,R,true,1051,2,0,0,1,1,
ht1,388,R,false,864,2,1,0,0,0,
ht1,389,R,true,1232,2,0,0,0,1,
ht1,390,R,true,1132,2,1,0,1,0,
ht1,391,R,false,923,2,1,0,0,1,
ht1,392,R,true,942,1,0,1,1,1,
ht1,393,R,true,640,1,1,0,1,1,
ht1,394,R,false,797,1,0,0,1,0,
ht1,395,R,true,877,2,1,1,1,0,
ht1,396,R,true,752,2,1,1,1,1,
ht1,397,R,true,929,2,1,0,1,0,
ht1,398,R,true,1052,2,0,0,1,1,
ht1,399,R,true,1168,2,1,1,1,0,
ht1,400,R,true,1072,1,1,0,1,0,
brk,brk,brk,brk,brk,brk,brk,brk,brk,brk,
ht1,401,R,true,1996,2,0,1,1,1,
ht1,402,R,true,907,1,1,1,1,1,
ht1,403,R,true,1039,2,1,0,1,1,
ht1,404,R,true,768,1,0,1,0,1,
ht1,405,R,true,893,2,0,1,0,1,
ht1,406,R,true,991,1,0,1,0,1,
ht1,407,R,true,861,2,1,1,1,1,
ht1,408,R,true,828,1,0,0,1,1,
ht1,409,R,false,1246,1,1,1,1,0,
ht1,410,R,true,800,2,0,1,0,1,
ht1,411,R,true,863,1,0,1,1,1,
ht1,412,R,true,1166,2,0,0,1,0,
ht1,413,R,true,914,2,0,0,1,0,
ht1,414,R,true,1182,1,0,0,1,1,
ht1,415,R,false,1165,1,0,0,0,1,
ht1,416,R,true,1115,1,1,0,1,0,
ht1,417,R,false,876,1,0,0,1,0,
ht1,418,R,true,738,1,1,0,1,0,
ht1,419,R,true,715,2,1,1,1,1,
ht1,420,R,true,798,2,0,1,1,1,
ht1,421,R,false,1036,1,1,0,1,0,
ht1,422,R,true,863,1,1,0,1,0,
ht1,423,R,true,895,1,0,1,1,1,
ht1,424,R,true,781,1,1,1,1,1,
ht1,425,R,true,989,2,1,1,1,1,
ht1,426,R,false,2559,2,1,1,0,1,
ht1,427,R,true,1123,1,1,0,1,1,
ht1,428,R,true,1354,1,0,1,0,1,
ht1,429,R,false,1346,1,0,0,0,1,
ht1,430,R,true,987,2,1,1,1,1,
ht1,431,R,false,862,2,0,1,1,0,
ht1,432,R,true,1053,2,0,0,1,1,
ht1,433,R,true,814,1,1,0,1,1,
ht1,434,R,false,752,2,0,0,1,0,
ht1,435,R,true,733,1,1,0,1,0,
ht1,436,R,true,943,1,0,1,1,1,
ht1,437,R,true,1552,2,0,0,1,1,
ht1,438,R,true,941,2,0,0,1,1,
ht1,439,R,false,972,1,0,0,0,1,
ht1,440,R,true,912,1,0,0,1,0,
ht1,441,R,true,972,1,1,1,1,1,
ht1,442,R,true,876,2,1,0,1,1,
ht1,443,R,false,959,1,0,1,1,0,
ht1,444,R,true,864,1,0,0,1,1,
ht1,445,R,false,1024,1,1,0,0,0,
ht1,446,R,true,972,2,0,1,1,1,
ht1,447,R,true,1132,1,0,1,1,1,
ht1,448,R,false,1024,2,1,0,0,1,
ht1,449,R,true,971,1,0,1,0,1,
ht1,450,R,true,893,2,1,0,1,0,
ht1,451,R,true,880,2,1,1,1,0,
ht1,452,R,true,1451,1,1,1,0,1,
ht1,453,R,true,1039,1,1,0,1,1,
ht1,454,R,true,989,2,0,0,0,1,
ht1,455,R,true,1388,1,1,1,1,0,
ht1,456,R,true,831,1,1,1,1,1,
ht1,457,R,true,1488,2,0,0,1,0,
ht1,458,R,false,892,2,1,0,0,1,
ht1,459,R,true,863,2,1,1,1,1,
ht1,460,R,true,972,1,0,1,1,1,
ht1,461,R,true,1534,1,0,0,0,1,
ht1,462,R,false,893,1,0,0,1,0,
ht1,463,R,true,898,1,1,1,1,1,
ht1,464,R,true,876,1,1,1,1,1,
ht1,465,R,true,1024,1,0,1,1,1,
ht1,466,R,false,941,1,1,0,0,1,
ht1,467,R,true,1491,2,1,0,1,1,
ht1,468,R,true,781,1,0,1,0,1,
ht1,469,R,true,2491,1,1,1,1,0,
ht1,470,R,true,1149,2,1,1,1,1,
ht1,471,R,true,1375,2,1,1,0,1,
ht1,472,R,true,1484,1,0,0,1,1,
ht1,473,R,true,1088,1,0,1,1,1,
ht1,474,R,true,895,1,0,1,0,1,
ht1,475,R,true,848,2,1,1,1,1,
ht1,476,R,true,1100,2,0,0,1,0,
ht1,477,R,true,1068,1,0,0,1,0,
ht1,478,R,true,1135,1,0,0,1,1,
ht1,479,R,true,861,2,0,1,0,1,
ht1,480,R,false,734,2,1,0,0,1,
ht1,481,R,true,864,1,0,0,1,1,
ht1,482,R,true,1039,1,0,1,1,1,
ht1,483,R,false,781,1,0,1,1,0,
ht1,484,R,true,844,2,0,1,1,1,
ht1,485,R,true,990,2,1,0,1,1,
ht1,486,R,true,940,1,1,1,1,1,
ht1,487,R,true,592,1,1,0,1,0,
ht1,488,R,true,971,1,0,1,0,1,
ht1,489,R,true,915,2,0,1,1,1,
ht1,490,R,false,700,1,1,1,0,1,
ht1,491,R,true,815,2,1,1,0,1,
ht1,492,R,true,847,1,0,0,1,1,
ht1,493,R,true,732,1,0,0,1,1,
ht1,494,R,true,1182,2,0,1,1,1,
ht1,495,R,true,1005,1,1,1,1,1,
ht1,496,R,true,941,1,1,0,1,0,
ht1,497,R,true,818,2,1,1,1,1,
ht1,498,R,true,844,1,1,0,1,1,
ht1,499,R,false,735,1,0,1,1,0,
ht1,500,R,true,764,1,1,1,1,1,
subID,trialNum,cntBalance,correct,rt,winner,p1conf,p2conf,p1rslt,p2rslt,
pj7,1,R,false,4819,2,1,0,0,1,
pj7,2,R,true,12117,2,0,0,0,1,
pj7,3,R,false,19395,1,1,0,0,1,
pj7,4,R,true,3787,2,0,1,1,1,
pj7,5,R,false,2384,1,1,1,1,1,
pj7,6,R,true,4912,1,1,1,0,1,
pj7,7,R,true,5916,2,0,1,1,1,
pj7,8,R,false,4747,1,1,1,0,1,
pj7,9,R,true,8863,2,1,1,0,1,
pj7,10,R,true,5852,1,1,1,1,1,
pj7,11,R,true,3995,1,1,1,1,1,
pj7,12,R,true,7633,2,0,1,1,1,
pj7,13,R,true,1916,2,1,0,1,1,
pj7,14,R,false,2317,2,1,0,0,0,
pj7,15,R,true,3118,2,0,1,1,1,
pj7,16,R,false,6973,2,1,0,1,0,
pj7,17,R,true,2768,1,0,0,1,0,
pj7,18,R,false,1421,1,0,0,1,0,
pj7,19,R,false,2130,2,0,1,1,0,
pj7,20,R,true,3101,1,0,0,1,1,
pj7,21,R,true,3420,2,1,0,0,1,
pj7,22,R,false,2367,2,1,1,0,0,
pj7,23,R,true,10577,2,0,0,1,1,
pj7,24,R,true,4491,2,0,1,1,0,
pj7,25,R,true,2095,1,1,1,1,1,
pj7,26,R,true,4126,2,0,1,1,1,
pj7,27,R,true,1599,2,0,0,1,1,
pj7,28,R,true,1584,1,0,1,1,1,
pj7,29,R,true,1392,1,1,1,1,1,
pj7,30,R,true,1728,2,1,0,1,1,
pj7,31,R,true,1872,2,0,1,1,1,
pj7,32,R,false,3838,2,0,0,1,1,
pj7,33,R,false,2512,2,1,0,0,1,
pj7,34,R,true,4224,1,0,1,1,1,
pj7,35,R,false,6786,1,1,1,0,1,
pj7,36,R,true,29739,1,1,1,0,1,
pj7,37,R,true,4512,2,0,0,0,1,
pj7,38,R,true,2572,2,1,0,0,1,
pj7,39,R,true,1262,1,1,1,1,1,
pj7,40,R,true,1709,2,1,0,1,1,
pj7,41,R,false,2625,1,1,1,1,0,
pj7,42,R,true,2079,2,1,0,1,0,
pj7,43,R,true,1584,2,0,1,1,1,
pj7,44,R,true,3600,2,0,1,0,1,
pj7,45,R,true,1633,2,1,1,1,1,
pj7,46,R,true,2559,2,0,1,1,1,
pj7,47,R,false,5824,2,0,0,1,0,
pj7,48,R,true,3327,2,1,0,1,1,
pj7,49,R,true,1711,1,0,1,1,1,
pj7,50,R,true,4145,1,1,1,1,1,
pj7,51,R,true,10239,2,1,1,0,1,
pj7,52,R,true,1260,2,1,1,1,1,
pj7,53,R,true,1826,1,1,1,1,1,
pj7,54,R,true,2139,2,0,0,1,1,
pj7,55,R,false,2800,1,0,0,0,1,
pj7,56,R,false,4463,1,1,1,1,0,
pj7,57,R,true,4736,1,0,1,0,1,
pj7,58,R,false,4179,1,0,0,1,0,
pj7,59,R,true,2203,1,0,0,0,0,
pj7,60,R,true,1792,2,1,1,1,1,
pj7,61,R,true,1777,1,1,0,1,1,
pj7,62,R,false,2127,2,0,0,0,1,
pj7,63,R,true,1871,1,0,1,1,1,
pj7,64,R,true,1134,1,0,0,1,1,
pj7,65,R,true,2428,2,1,1,1,1,
pj7,66,R,true,1280,2,1,1,1,1,
pj7,67,R,false,4768,2,0,0,0,1,
pj7,68,R,false,1423,2,0,0,0,1,
pj7,69,R,false,959,1,0,1,0,0,
pj7,70,R,true,3231,2,1,0,1,1,
pj7,71,R,true,7516,1,0,1,0,1,
pj7,72,R,false,1262,2,1,1,0,0,
pj7,73,R,false,5954,1,0,0,0,1,
pj7,74,R,true,1404,2,1,1,1,1,
pj7,75,R,false,2015,2,0,1,1,0,
pj7,76,R,false,3487,2,1,0,1,0,
pj7,77,R,true,1393,2,0,0,1,1,
pj7,78,R,true,1491,1,1,0,1,1,
pj7,79,R,true,3227,1,1,1,1,1,
pj7,80,R,true,2351,2,1,0,1,0,
pj7,81,R,true,1293,1,1,1,1,1,
pj7,82,R,true,2127,1,0,0,1,0,
pj7,83,R,false,2001,1,0,0,0,0,
pj7,84,R,true,5120,2,1,1,0,1,
pj7,85,R,true,2144,2,1,1,0,1,
pj7,86,R,true,1805,2,0,1,0,1,
pj7,87,R,true,1919,2,0,1,1,1,
pj7,88,R,false,5325,1,1,0,1,0,
pj7,89,R,false,2204,1,1,0,0,0,
pj7,90,R,true,2526,1,0,1,1,1,
pj7,91,R,true,1743,1,1,0,1,0,
pj7,92,R,true,1727,1,1,0,1,1,
pj7,93,R,false,15791,1,1,0,1,0,
pj7,94,R,false,4909,1,1,1,1,0,
pj7,95,R,false,4930,1,1,0,0,1,
pj7,96,R,true,4287,2,0,1,0,1,
pj7,97,R,true,4394,1,1,1,1,0,
pj7,98,R,true,3934,1,0,1,1,0,
pj7,99,R,false,5199,2,0,0,1,0,
pj7,100,R,false,4974,1,0,1,0,1,
brk,brk,brk,brk,brk,brk,brk,brk,brk,brk,
pj7,101,R,true,1983,1,0,0,1,0,
pj7,102,R,true,1388,2,1,1,0,1,
pj7,103,R,false,2048,1,1,1,0,1,
pj7,104,R,true,1104,2,1,1,1,1,
pj7,105,R,false,2432,1,1,1,0,1,
pj7,106,R,true,1440,1,1,1,1,1,
pj7,107,R,true,5121,1,0,1,0,1,
pj7,108,R,false,1715,2,1,0,0,1,
pj7,109,R,false,2075,1,1,1,1,0,
pj7,110,R,true,2048,2,0,0,1,0,
pj7,111,R,false,3087,1,0,1,1,0,
pj7,112,R,false,2417,2,0,1,0,0,
pj7,113,R,true,2544,2,1,1,0,1,
pj7,114,R,true,2447,2,1,1,0,1,
pj7,115,R,false,9200,2,0,0,1,0,
pj7,116,R,true,1729,2,0,0,1,0,
pj7,117,R,false,2883,1,1,1,1,0,
pj7,118,R,true,1452,2,0,1,1,1,
pj7,119,R,true,1151,1,0,0,1,1,
pj7,120,R,false,1425,2,1,0,0,0,
pj7,121,R,true,2242,2,1,1,1,1,
pj7,122,R,false,4539,1,1,1,0,1,
pj7,123,R,false,1569,2,0,0,0,0,
pj7,124,R,false,2867,2,1,0,0,0,
pj7,125,R,false,1642,2,0,0,0,0,
pj7,126,R,false,4401,1,0,0,1,1,
pj7,127,R,false,1794,2,1,0,0,1,
pj7,128,R,true,1201,2,0,0,1,1,
pj7,129,R,true,2175,2,0,0,1,0,
pj7,130,R,false,2434,1,1,0,1,0,
pj7,131,R,true,1434,1,1,1,1,1,
pj7,132,R,true,1824,2,1,0,1,0,
pj7,133,R,true,1360,2,1,1,1,1,
pj7,134,R,false,1806,1,0,0,1,0,
pj7,135,R,false,1551,1,0,0,0,0,
pj7,136,R,true,1395,2,0,1,1,1,
pj7,137,R,true,1322,1,0,1,1,1,
pj7,138,R,false,1133,2,1,0,0,0,
pj7,139,R,true,1042,2,0,0,0,0,
pj7,140,R,true,2203,2,1,1,1,1,
pj7,141,R,true,2319,2,0,0,1,0,
pj7,142,R,true,1968,2,0,1,1,1,
pj7,143,R,true,2783,1,1,1,0,1,
pj7,144,R,false,1757,1,1,1,0,1,
pj7,145,R,true,1636,2,0,1,1,1,
pj7,146,R,true,2332,2,0,1,1,1,
pj7,147,R,false,1120,1,1,0,0,1,
pj7,148,R,false,2210,2,1,1,0,1,
pj7,149,R,true,8141,2,0,0,1,1,
pj7,150,R,true,1645,1,1,1,1,1,
pj7,151,R,true,7968,1,0,0,1,1,
pj7,152,R,true,5728,2,1,1,1,1,
pj7,153,R,true,3600,1,1,0,1,1,
pj7,154,R,true,2255,1,0,0,1,1,
pj7,155,R,true,1443,2,1,0,1,1,
pj7,156,R,true,3212,1,0,1,0,1,
pj7,157,R,true,1312,1,1,1,1,1,
pj7,158,R,false,1089,1,0,0,0,0,
pj7,159,R,true,1443,2,1,1,1,1,
pj7,160,R,true,890,1,1,1,1,1,
pj7,161,R,false,751,2,0,0,0,0,
pj7,162,R,false,1216,1,1,0,1,0,
pj7,163,R,true,1425,1,1,0,1,0,
pj7,164,R,true,2155,2,1,0,1,0,
pj7,165,R,false,1200,1,1,0,0,1,
pj7,166,R,true,1135,2,1,1,1,1,
pj7,167,R,true,3199,1,1,1,1,0,
pj7,168,R,true,1312,2,1,1,1,1,
pj7,169,R,true,1938,1,0,1,0,1,
pj7,170,R,true,2009,2,0,0,1,1,
pj7,171,R,true,1876,1,0,0,0,0,
pj7,172,R,true,4154,1,1,0,1,1,
pj7,173,R,true,3602,1,1,0,1,0,
pj7,174,R,false,1099,1,0,1,1,0,
pj7,175,R,true,1135,1,1,1,1,1,
pj7,176,R,true,1633,1,0,1,1,1,
pj7,177,R,true,1452,1,1,1,1,1,
pj7,178,R,true,1649,2,0,1,1,1,
pj7,179,R,true,1550,2,1,0,1,1,
pj7,180,R,false,4239,2,0,1,1,0,
pj7,181,R,true,1682,1,0,0,1,0,
pj7,182,R,false,2123,1,1,1,0,1,
pj7,183,R,true,880,1,1,0,1,1,
pj7,184,R,true,1168,2,1,0,1,1,
pj7,185,R,false,1264,2,0,1,1,0,
pj7,186,R,true,1885,2,0,1,1,1,
pj7,187,R,true,1392,1,1,0,1,1,
pj7,188,R,true,960,1,1,0,1,1,
pj7,189,R,true,1649,2,0,1,0,1,
pj7,190,R,true,1307,2,1,0,1,0,
pj7,191,R,false,1119,2,1,1,0,0,
pj7,192,R,true,2351,2,0,1,1,1,
pj7,193,R,false,1105,2,1,1,0,0,
pj7,194,R,true,1968,1,0,0,1,1,
pj7,195,R,true,1649,2,1,1,1,0,
pj7,196,R,true,943,1,0,0,1,1,
pj7,197,R,false,1260,2,0,0,1,0,
pj7,198,R,true,1182,1,1,1,1,1,
pj7,199,R,false,1149,2,1,1,0,1,
pj7,200,R,true,2334,2,1,0,1,1,
brk,brk,brk,brk,brk,brk,brk,brk,brk,brk,
pj7,201,R,false,2069,1,1,1,0,0,
pj7,202,R,true,2642,1,1,0,1,1,
pj7,203,R,true,1901,2,1,1,0,1,
pj7,204,R,true,1217,2,0,1,0,1,
pj7,205,R,true,1025,1,1,0,1,1,
pj7,206,R,true,987,1,1,0,1,1,
pj7,207,R,true,1391,2,1,1,1,1,
pj7,208,R,true,739,1,1,0,1,1,
pj7,209,R,true,1578,2,0,0,0,1,
pj7,210,R,true,1489,2,1,0,1,1,
pj7,211,R,true,3405,1,0,0,1,1,
pj7,212,R,true,1856,2,1,0,1,1,
pj7,213,R,true,2462,1,0,1,0,1,
pj7,214,R,true,1440,2,1,1,1,1,
pj7,215,R,false,1793,1,1,1,0,1,
pj7,216,R,true,1339,2,1,1,1,1,
pj7,217,R,true,1549,2,0,1,0,1,
pj7,218,R,true,2335,1,0,1,0,1,
pj7,219,R,true,3711,1,1,1,1,0,
pj7,220,R,false,1356,1,1,0,0,0,
pj7,221,R,true,781,1,0,0,1,1,
pj7,222,R,true,1469,2,1,1,1,0,
pj7,223,R,true,1361,2,1,0,1,1,
pj7,224,R,false,4223,1,0,1,0,1,
pj7,225,R,false,1152,2,0,0,0,1,
pj7,226,R,true,2963,2,0,0,1,1,
pj7,227,R,true,1002,2,1,0,1,1,
pj7,228,R,true,865,1,0,0,1,1,
pj7,229,R,true,1231,1,1,1,1,1,
pj7,230,R,false,1420,1,1,1,0,1,
pj7,231,R,true,641,1,1,0,1,1,
pj7,232,R,true,897,2,0,1,1,1,
pj7,233,R,true,1568,2,1,1,0,1,
pj7,234,R,false,2177,1,1,0,0,1,
pj7,235,R,true,1712,1,0,1,1,1,
pj7,236,R,true,1152,2,1,1,1,1,
pj7,237,R,true,1104,1,0,0,1,1,
pj7,238,R,true,1777,2,1,1,0,1,
pj7,239,R,true,941,2,1,0,1,1,
pj7,240,R,false,1135,1,1,0,0,0,
pj7,241,R,true,1200,1,1,0,1,1,
pj7,242,R,true,960,2,1,1,1,1,
pj7,243,R,true,800,1,0,1,1,1,
pj7,244,R,true,1152,2,1,0,1,1,
pj7,245,R,false,689,1,0,1,0,0,
pj7,246,R,true,720,1,0,1,1,1,
pj7,247,R,false,783,1,0,0,0,0,
pj7,248,R,true,704,1,1,0,1,1,
pj7,249,R,true,1025,2,0,1,0,1,
pj7,250,R,true,606,2,1,0,1,0,
pj7,251,R,false,1329,2,1,0,0,1,
pj7,252,R,true,976,2,1,0,1,1,
pj7,253,R,false,928,1,0,1,0,0,
pj7,254,R,false,705,2,0,1,0,1,
pj7,255,R,true,689,1,0,1,1,1,
pj7,256,R,false,2544,1,1,1,1,0,
pj7,257,R,false,961,1,1,1,1,0,
pj7,258,R,true,593,2,0,1,1,1,
pj7,259,R,true,964,1,0,0,1,1,
pj7,260,R,true,732,2,0,1,1,1,
pj7,261,R,true,1710,2,0,1,0,1,
pj7,262,R,true,1744,2,0,0,1,1,
pj7,263,R,false,1152,1,0,1,0,0,
pj7,264,R,true,736,1,0,1,1,1,
pj7,265,R,true,1440,2,1,0,1,0,
pj7,266,R,true,800,1,1,1,1,1,
pj7,267,R,true,1442,2,1,0,1,1,
pj7,268,R,true,716,2,1,1,1,1,
pj7,269,R,false,638,1,1,0,0,0,
pj7,270,R,true,641,2,1,0,1,0,
pj7,271,R,true,688,2,1,1,1,1,
pj7,272,R,true,1021,1,1,0,1,1,
pj7,273,R,false,4589,1,1,1,0,1,
pj7,274,R,false,1633,1,0,0,1,0,
pj7,275,R,true,1470,2,0,0,0,1,
pj7,276,R,true,928,1,1,1,1,1,
pj7,277,R,false,1150,2,1,0,0,1,
pj7,278,R,true,2515,2,0,0,1,0,
pj7,279,R,true,1116,1,0,0,1,1,
pj7,280,R,true,1326,1,0,0,1,0,
pj7,281,R,true,929,1,1,0,1,0,
pj7,282,R,true,1457,1,0,0,1,1,
pj7,283,R,true,2095,1,0,1,0,1,
pj7,284,R,true,1283,2,1,0,1,1,
pj7,285,R,false,1243,1,0,0,0,1,
pj7,286,R,true,3058,1,1,0,1,1,
pj7,287,R,true,1499,2,1,1,1,0,
pj7,288,R,true,749,2,1,1,1,1,
pj7,289,R,false,958,2,0,0,0,1,
pj7,290,R,true,977,1,0,0,1,1,
pj7,291,R,true,2369,2,0,0,1,1,
pj7,292,R,true,2270,2,1,0,1,1,
pj7,293,R,true,1793,2,0,0,1,0,
pj7,294,R,true,913,2,1,1,1,1,
pj7,295,R,true,1072,2,0,0,1,1,
pj7,296,R,true,1615,2,0,1,1,1,
pj7,297,R,false,1600,2,1,1,1,0,
pj7,298,R,true,303,2,0,1,1,1,
pj7,299,R,false,848,1,1,0,0,0,
pj7,300,R,false,1378,1,1,1,0,1,
brk,brk,brk,brk,brk,brk,brk,brk,brk,brk,
pj7,301,R,true,3601,1,1,1,1,1,
pj7,302,R,true,668,1,1,0,1,1,
pj7,303,R,false,849,1,1,1,0,0,
pj7,304,R,false,927,1,1,0,0,0,
pj7,305,R,true,1906,2,1,1,1,0,
pj7,306,R,true,1626,1,0,0,1,0,
pj7,307,R,true,832,1,0,0,1,1,
pj7,308,R,true,846,2,1,0,1,1,
pj7,309,R,true,624,1,0,0,1,1,
pj7,310,R,false,721,1,1,1,0,1,
pj7,311,R,true,507,1,1,0,1,1,
pj7,312,R,true,767,2,1,1,1,0,
pj7,313,R,false,1008,1,0,0,0,0,
pj7,314,R,true,1166,1,1,1,1,1,
pj7,315,R,false,894,1,1,1,0,1,
pj7,316,R,true,784,2,1,1,1,1,
pj7,317,R,true,1900,2,1,0,1,0,
pj7,318,R,true,1068,2,0,0,1,1,
pj7,319,R,true,930,1,1,0,1,1,
pj7,320,R,false,1802,2,1,0,0,1,
pj7,321,R,true,1298,1,0,1,1,1,
pj7,322,R,true,2092,2,1,0,1,0,
pj7,323,R,true,1102,1,1,1,1,1,
pj7,324,R,true,1775,1,0,1,0,1,
pj7,325,R,true,1682,1,0,1,0,1,
pj7,326,R,true,1049,2,1,1,1,1,
pj7,327,R,true,671,2,1,0,1,1,
pj7,328,R,true,2496,2,1,1,0,1,
pj7,329,R,true,1516,2,0,1,0,1,
pj7,330,R,true,1774,2,0,1,1,1,
pj7,331,R,true,702,2,0,1,1,1,
pj7,332,R,false,1457,2,1,1,0,0,
pj7,333,R,false,1149,2,1,1,0,0,
pj7,334,R,true,3119,1,0,0,1,1,
pj7,335,R,true,1032,2,1,1,1,1,
pj7,336,R,false,1553,1,0,0,1,1,
pj7,337,R,true,913,2,0,1,1,1,
pj7,338,R,true,799,1,0,1,1,1,
pj7,339,R,true,1248,1,0,0,1,1,
pj7,340,R,true,1516,1,1,0,1,1,
pj7,341,R,true,876,2,1,0,1,1,
pj7,342,R,true,1841,2,1,0,1,0,
pj7,343,R,true,749,2,1,1,1,1,
pj7,344,R,true,1295,2,0,0,1,1,
pj7,345,R,true,1276,2,0,0,1,1,
pj7,346,R,true,2095,2,1,0,1,0,
pj7,347,R,true,1248,2,1,0,1,1,
pj7,348,R,true,3501,1,1,0,1,0,
pj7,349,R,true,1436,1,1,0,1,0,
pj7,350,R,true,1521,2,1,0,1,0,
pj7,351,R,true,577,1,1,1,1,1,
pj7,352,R,true,603,2,1,1,1,1,
pj7,353,R,false,562,1,0,1,0,1,
pj7,354,R,true,604,2,1,1,1,1,
pj7,355,R,true,594,1,1,1,1,0,
pj7,356,R,true,1133,2,1,0,1,1,
pj7,357,R,true,1259,2,0,0,1,1,
pj7,358,R,true,976,1,0,0,1,1,
